timestamp_ms,accel_x,accel_y,accel_z
0,0.208905,0.449370,0.316346
5,0.798339,0.420383,-0.037954
10,-0.292756,-0.379514,-0.414581
15,-0.792639,-0.470229,0.003523
20,0.209946,0.407599,0.339505
25,0.736319,0.360253,0.048958
30,-0.194068,-0.370338,-0.273274
35,-0.801070,-0.360080,-0.020100
40,0.245034,0.374816,0.267570
45,0.787024,0.451739,0.001615
50,-0.174733,-0.434462,-0.404323
55,-0.738937,-0.526093,-0.084382
60,0.214612,0.457620,0.326013
65,0.750130,0.435504,-0.064954
70,-0.117092,-0.443293,-0.307341
75,-0.775885,-0.361976,0.008266
80,0.245137,0.411781,0.281079
85,0.773847,0.416068,0.004959
90,-0.265640,-0.377015,-0.273236
95,-0.680477,-0.385628,0.011755
100,0.233995,0.481230,0.304045
105,0.717719,0.379747,-0.106315
110,-0.168479,-0.357219,-0.367188
115,-0.812870,-0.457892,-0.032161
120,0.259301,0.446280,0.314348
125,0.792055,0.438842,0.027017
130,-0.315993,-0.462480,-0.271285
135,-0.856646,-0.349163,0.062432
140,0.244008,0.448249,0.284418
145,0.828790,0.451380,0.010303
150,-0.311307,-0.375354,-0.341712
155,-0.733727,-0.433217,0.015981
160,0.318750,0.352676,0.291069
165,0.714645,0.377480,0.014893
170,-0.277578,-0.490440,-0.337871
175,-0.669758,-0.424447,-0.034527
180,0.263668,0.360656,0.300074
185,0.806192,0.418217,-0.020434
190,-0.355527,-0.381353,-0.302308
195,-0.705176,-0.332970,-0.056096
200,0.251091,0.370460,0.334841
205,0.747829,0.455773,-0.034750
210,-0.273880,-0.488011,-0.315173
215,-0.690516,-0.535174,-0.090021
220,0.209526,0.383761,0.223892
225,0.835898,0.376195,0.061232
230,-0.280712,-0.551862,-0.274199
235,-0.694968,-0.384244,0.062992
240,0.191019,0.361618,0.324197
245,0.737263,0.447484,-0.035381
250,-0.256154,-0.416054,-0.302493
255,-0.764773,-0.445752,0.069350
260,0.235949,0.400156,0.311777
265,0.711380,0.441055,0.079829
270,-0.240322,-0.486454,-0.368219
275,-0.777741,-0.475614,-0.062651
280,0.240384,0.397221,0.323372
285,0.767314,0.394728,0.061651
290,-0.186034,-0.442966,-0.343464
295,-0.717532,-0.354918,-0.021247
300,0.212876,0.511113,0.388709
305,0.759706,0.393329,0.018313
310,-0.261846,-0.424024,-0.262935
315,-0.724468,-0.372215,-0.062866
320,0.128255,0.491512,0.316406
325,0.798480,0.408400,0.064485
330,-0.198624,-0.461773,-0.245538
335,-0.868447,-0.522815,0.013791
340,0.280071,0.393959,0.309551
345,0.781509,0.421657,0.055376
350,-0.191899,-0.426089,-0.345196
355,-0.762600,-0.424651,-0.064587
360,0.167091,0.415824,0.255174
365,0.738535,0.451570,0.057533
370,-0.223449,-0.426425,-0.319824
375,-0.734044,-0.417006,-0.029358
380,0.164886,0.459213,0.221363
385,0.808981,0.440777,0.020617
390,-0.244018,-0.383358,-0.330926
395,-0.776447,-0.490524,-0.028179
400,0.183630,0.355207,0.365615
405,0.801131,0.403273,-0.092192
410,-0.223935,-0.413190,-0.295841
415,-0.836267,-0.367384,0.087580
420,0.222170,0.362816,0.304553
425,0.695703,0.409191,0.013902
430,-0.274831,-0.371854,-0.288051
435,-0.735168,-0.373156,0.037660
440,0.315634,0.413562,0.348478
445,0.768096,0.408682,-0.020560
450,-0.226229,-0.465598,-0.383268
455,-0.733609,-0.403642,-0.014528
460,0.278275,0.337342,0.345556
465,0.691045,0.387730,0.031020
470,-0.188213,-0.416212,-0.309199
475,-0.736338,-0.321267,-0.035769
480,0.251751,0.391455,0.337667
485,0.801281,0.460006,0.020502
490,-0.270686,-0.457510,-0.322537
495,-0.725905,-0.411705,-0.011660
500,0.263236,0.367230,0.226560
505,0.741435,0.517060,0.011590
510,-0.248598,-0.381404,-0.407269
515,-0.772557,-0.409563,0.060344
520,0.270899,0.428601,0.282087
525,0.740316,0.369307,-0.021879
530,-0.247476,-0.435246,-0.268112
535,-0.661679,-0.399966,0.038218
540,0.274658,0.427815,0.253458
545,0.738776,0.489829,0.001453
550,-0.353948,-0.432613,-0.280601
555,-0.767135,-0.456872,-0.024051
560,0.311694,0.512714,0.349648
565,0.796214,0.425132,0.064830
570,-0.211035,-0.335536,-0.330910
575,-0.751200,-0.409612,-0.025537
580,0.233606,0.392731,0.320812
585,0.731881,0.374688,-0.060824
590,-0.337504,-0.433273,-0.335234
595,-0.774080,-0.493342,-0.011682
600,0.182817,0.459444,0.334100
605,0.780970,0.422865,-0.044836
610,-0.203253,-0.348033,-0.286278
615,-0.761687,-0.388042,0.012343
620,0.276005,0.443269,0.287058
625,0.876788,0.415998,0.065581
630,-0.259014,-0.353233,-0.265349
635,-0.734076,-0.391309,0.033256
640,0.232841,0.485170,0.311015
645,0.760190,0.425920,0.067996
650,-0.211593,-0.472493,-0.327636
655,-0.730362,-0.462054,0.043883
660,0.238358,0.420162,0.315902
665,0.795940,0.356664,-0.058153
670,-0.234675,-0.429588,-0.259640
675,-0.729152,-0.465936,-0.125305
680,0.200535,0.468736,0.360816
685,0.704273,0.450223,-0.022088
690,-0.257871,-0.518739,-0.305442
695,-0.727317,-0.386126,-0.014931
700,0.225723,0.451058,0.349675
705,0.715401,0.420364,0.053980
710,-0.245085,-0.427274,-0.300795
715,-0.784355,-0.478845,0.054701
720,0.219277,0.513708,0.363713
725,0.719250,0.315157,0.051748
730,-0.308640,-0.279154,-0.348869
735,-0.802163,-0.401669,-0.017084
740,0.216761,0.514527,0.403613
745,0.811540,0.362424,0.016620
750,-0.215332,-0.430928,-0.236154
755,-0.756270,-0.484242,-0.074392
760,0.273119,0.527311,0.263966
765,0.709278,0.506961,0.011003
770,-0.221623,-0.357676,-0.292007
775,-0.764606,-0.524800,0.050479
780,0.214511,0.523247,0.332158
785,0.694747,0.496219,-0.000828
790,-0.160417,-0.371704,-0.299455
795,-0.813663,-0.385469,0.022511
800,0.198993,0.424152,0.329252
805,0.761818,0.414145,0.025394
810,-0.237264,-0.524288,-0.300254
815,-0.714460,-0.366460,-0.043524
820,0.270787,0.596415,0.305261
825,0.721804,0.362274,0.018940
830,-0.273218,-0.471904,-0.273518
835,-0.728290,-0.377243,0.042751
840,0.185136,0.385970,0.357536
845,0.791597,0.430791,-0.063960
850,-0.282372,-0.355694,-0.371694
855,-0.711870,-0.396556,0.001424
860,0.216243,0.435878,0.339333
865,0.873743,0.425053,-0.041531
870,-0.175446,-0.376979,-0.308031
875,-0.794046,-0.485381,-0.024236
880,0.257031,0.443315,0.394133
885,0.779265,0.404676,0.043128
890,-0.166693,-0.411189,-0.300043
895,-0.701761,-0.445080,0.037515
900,0.279145,0.442252,0.402180
905,0.701801,0.501642,-0.050211
910,-0.210133,-0.495639,-0.362936
915,-0.812999,-0.352073,-0.016699
920,0.160869,0.401930,0.334708
925,0.713160,0.485689,0.008783
930,-0.251014,-0.408653,-0.240757
935,-0.746737,-0.356659,-0.017813
940,0.251937,0.403791,0.240711
945,0.873897,0.387783,-0.074643
950,-0.257392,-0.359192,-0.318386
955,-0.736532,-0.400980,0.025973
960,0.278042,0.457746,0.342225
965,0.717878,0.368142,0.051393
970,-0.202237,-0.448589,-0.176644
975,-0.833621,-0.428795,0.014490
980,0.189338,0.328659,0.270772
985,0.796298,0.420142,0.025666
990,-0.257648,-0.465865,-0.253254
995,-0.785115,-0.366905,0.053710
1000,0.262589,0.427373,0.372296
1005,0.750513,0.431429,-0.119855
1010,-0.295490,-0.448836,-0.267797
1015,-0.724117,-0.455161,-0.012691
1020,0.191350,0.450181,0.324092
1025,0.725027,0.446652,-0.021849
1030,-0.270640,-0.478292,-0.327656
1035,-0.681842,-0.392043,-0.001827
1040,0.243558,0.412771,0.223104
1045,0.863338,0.529684,-0.024861
1050,-0.286855,-0.365623,-0.281910
1055,-0.766883,-0.380149,-0.070767
1060,0.286276,0.407772,0.247332
1065,0.697909,0.338459,0.001692
1070,-0.233270,-0.415629,-0.272938
1075,-0.621580,-0.513114,0.043714
1080,0.345973,0.409735,0.260709
1085,0.751690,0.351545,-0.054157
1090,-0.238644,-0.443097,-0.287934
1095,-0.759793,-0.417762,0.049998
1100,0.178069,0.491451,0.303665
1105,0.723543,0.356901,0.085683
1110,-0.241000,-0.442293,-0.344690
1115,-0.682577,-0.450644,-0.007565
1120,0.171769,0.468700,0.316830
1125,0.798654,0.444844,-0.041776
1130,-0.365247,-0.351419,-0.258959
1135,-0.775351,-0.387313,0.000021
1140,0.313338,0.418478,0.312365
1145,0.871871,0.474543,-0.055066
1150,-0.175481,-0.423575,-0.293365
1155,-0.726411,-0.457718,0.031427
1160,0.272594,0.398203,0.314667
1165,0.789399,0.378746,0.009128
1170,-0.198883,-0.490082,-0.303620
1175,-0.795301,-0.487979,-0.031211
1180,0.284566,0.445476,0.285801
1185,0.739155,0.451292,-0.009193
1190,-0.180069,-0.379002,-0.214240
1195,-0.772171,-0.461749,-0.008903
1200,0.240335,0.448228,0.311516
1205,0.833702,0.420496,0.149372
1210,-0.215705,-0.399225,-0.403683
1215,-0.696226,-0.435328,0.026845
1220,0.233064,0.409456,0.265772
1225,0.770637,0.471064,-0.008086
1230,-0.361350,-0.434848,-0.390002
1235,-0.892176,-0.509427,0.043957
1240,0.199501,0.446510,0.367730
1245,0.747245,0.458287,0.050831
1250,-0.246187,-0.455600,-0.353882
1255,-0.758657,-0.387023,0.069576
1260,0.169336,0.435825,0.232684
1265,0.748888,0.428446,-0.056556
1270,-0.131175,-0.453961,-0.324397
1275,-0.757101,-0.466896,0.003128
1280,0.269660,0.402450,0.330661
1285,0.776372,0.436358,-0.017689
1290,-0.191740,-0.458902,-0.381048
1295,-0.785620,-0.401547,-0.018109
1300,0.208970,0.413299,0.382439
1305,0.740131,0.416911,0.046059
1310,-0.111882,-0.449458,-0.298497
1315,-0.778288,-0.405165,0.066769
1320,0.252645,0.488517,0.355567
1325,0.766523,0.325147,0.013952
1330,-0.297730,-0.342316,-0.299640
1335,-0.754910,-0.446918,0.009016
1340,0.325637,0.404526,0.331888
1345,0.750705,0.496283,-0.078418
1350,-0.254964,-0.340461,-0.321793
1355,-0.740707,-0.438123,-0.040379
1360,0.213506,0.498585,0.294893
1365,0.757393,0.478978,0.011105
1370,-0.216238,-0.417576,-0.187059
1375,-0.813558,-0.445030,-0.110151
1380,0.194377,0.324236,0.348273
1385,0.765341,0.387849,0.034061
1390,-0.241805,-0.386841,-0.304826
1395,-0.886302,-0.374144,-0.023387
1400,0.207526,0.408567,0.260293
1405,0.866972,0.397214,-0.005137
1410,-0.324043,-0.420349,-0.310232
1415,-0.786318,-0.451696,0.028299
1420,0.243249,0.467325,0.333251
1425,0.710197,0.434453,-0.047497
1430,-0.233122,-0.435460,-0.317626
1435,-0.736937,-0.427513,0.080953
1440,0.280784,0.522869,0.210297
1445,0.715512,0.435699,0.002561
1450,-0.092122,-0.400114,-0.317222
1455,-0.760906,-0.428965,0.045438
1460,0.233991,0.473841,0.302578
1465,0.801965,0.395765,0.010203
1470,-0.310394,-0.482932,-0.268067
1475,-0.700643,-0.435146,-0.040139
1480,0.215899,0.448624,0.196833
1485,0.672113,0.423816,-0.034274
1490,-0.290118,-0.404362,-0.324707
1495,-0.638145,-0.378828,-0.037676
1500,0.248599,0.513098,0.221329
1505,0.755043,0.512144,-0.094579
1510,-0.229043,-0.463491,-0.375041
1515,-0.790598,-0.349504,0.133932
1520,0.223003,0.526604,0.321251
1525,0.766247,0.439331,0.002110
1530,-0.218318,-0.421261,-0.318818
1535,-0.875211,-0.391044,-0.088310
1540,0.242067,0.400006,0.288348
1545,0.774489,0.432141,0.029852
1550,-0.346712,-0.404387,-0.346637
1555,-0.703732,-0.441124,-0.036082
1560,0.270086,0.439673,0.318406
1565,0.821554,0.388682,0.066442
1570,-0.254862,-0.446113,-0.266936
1575,-0.804254,-0.414878,0.012708
1580,0.211416,0.433495,0.300633
1585,0.730709,0.443046,0.046375
1590,-0.139462,-0.379145,-0.287380
1595,-0.780377,-0.413348,0.094504
1600,0.243359,0.368865,0.276123
1605,0.715947,0.363992,-0.043715
1610,-0.241382,-0.563917,-0.326190
1615,-0.767414,-0.400644,-0.134054
1620,0.123075,0.403372,0.301036
1625,0.680936,0.436246,-0.065947
1630,-0.215517,-0.413407,-0.251463
1635,-0.817053,-0.400651,0.032262
1640,0.254677,0.412076,0.227396
1645,0.720981,0.415703,0.008792
1650,-0.292395,-0.381159,-0.251285
1655,-0.811046,-0.388182,0.014537
1660,0.198371,0.428231,0.319474
1665,0.785721,0.426879,-0.045473
1670,-0.161703,-0.530988,-0.341409
1675,-0.701976,-0.407920,0.039088
1680,0.246817,0.488975,0.372764
1685,0.818276,0.409761,-0.024501
1690,-0.243216,-0.392467,-0.199306
1695,-0.801192,-0.402821,0.068110
1700,0.236973,0.369684,0.281500
1705,0.859917,0.535006,0.010510
1710,-0.234956,-0.500126,-0.303017
1715,-0.742747,-0.464036,0.038491
1720,0.208024,0.416399,0.279792
1725,0.785248,0.477206,0.009095
1730,-0.304219,-0.422647,-0.367648
1735,-0.734428,-0.370785,-0.017716
1740,0.184144,0.399849,0.296173
1745,0.764598,0.474828,0.033035
1750,-0.277257,-0.455550,-0.313061
1755,-0.744986,-0.449635,-0.064451
1760,0.258118,0.450626,0.301534
1765,0.805148,0.335553,-0.034321
1770,-0.317165,-0.466093,-0.317797
1775,-0.718487,-0.464533,-0.083451
1780,0.304948,0.389482,0.329754
1785,0.824016,0.445623,0.015995
1790,-0.300895,-0.403445,-0.286641
1795,-0.713182,-0.425105,0.022628
1800,0.308781,0.370650,0.306066
1805,0.737028,0.471613,-0.101627
1810,-0.202244,-0.414583,-0.308765
1815,-0.732114,-0.493407,-0.029896
1820,0.145189,0.375165,0.235572
1825,0.714882,0.339831,0.026172
1830,-0.201287,-0.386991,-0.300800
1835,-0.715900,-0.432420,0.013592
1840,0.201887,0.427186,0.238681
1845,0.756587,0.322329,0.036330
1850,-0.309868,-0.445130,-0.250321
1855,-0.785386,-0.384427,-0.038889
1860,0.271875,0.434548,0.300831
1865,0.836528,0.452306,0.063681
1870,-0.264408,-0.363568,-0.238883
1875,-0.804704,-0.439769,-0.062634
1880,0.185118,0.405296,0.301495
1885,0.712695,0.343349,0.051541
1890,-0.236574,-0.437544,-0.317548
1895,-0.723920,-0.421153,0.025325
1900,0.181746,0.439929,0.264636
1905,0.729241,0.436694,-0.080007
1910,-0.225555,-0.435272,-0.241400
1915,-0.881509,-0.478661,-0.004874
1920,0.272878,0.406326,0.323811
1925,0.713836,0.467331,-0.065343
1930,-0.265175,-0.425416,-0.316700
1935,-0.695396,-0.433546,0.028853
1940,0.229526,0.487126,0.229049
1945,0.725298,0.483992,0.014271
1950,-0.183979,-0.398379,-0.283492
1955,-0.686720,-0.442695,0.003880
1960,0.181590,0.430385,0.274720
1965,0.660115,0.550262,-0.000979
1970,-0.179207,-0.408398,-0.371643
1975,-0.706825,-0.420835,0.111552
1980,0.254589,0.451397,0.297847
1985,0.810404,0.435594,-0.045829
1990,-0.326272,-0.470248,-0.251599
1995,-0.730810,-0.470030,-0.060703
2000,0.281869,0.446040,0.284059
2005,0.743522,0.506705,0.006144
2010,-0.196127,-0.386002,-0.329156
2015,-0.719496,-0.369351,-0.072272
2020,0.217761,0.335755,0.358504
2025,0.702011,0.477905,0.026920
2030,-0.181102,-0.338063,-0.292946
2035,-0.855046,-0.466580,-0.014293
2040,0.181758,0.534449,0.321506
2045,0.745841,0.482536,0.034364
2050,-0.250398,-0.370409,-0.340300
2055,-0.799604,-0.371333,0.036509
2060,0.282178,0.398650,0.315193
2065,0.786627,0.492400,-0.016581
2070,-0.263774,-0.377388,-0.260516
2075,-0.799633,-0.396319,0.092069
2080,0.187209,0.399560,0.327660
2085,0.830423,0.379798,-0.010402
2090,-0.178807,-0.430629,-0.346603
2095,-0.813509,-0.410507,0.012104
2100,0.269122,0.398146,0.266908
2105,0.775575,0.348135,-0.044214
2110,-0.276854,-0.394155,-0.278030
2115,-0.699849,-0.449744,0.082203
2120,0.237815,0.428871,0.261399
2125,0.740144,0.417191,0.037043
2130,-0.243711,-0.409878,-0.288781
2135,-0.752480,-0.470796,0.100993
2140,0.185034,0.512180,0.332890
2145,0.836065,0.450868,-0.009903
2150,-0.305852,-0.471056,-0.287635
2155,-0.764022,-0.453139,0.016251
2160,0.193674,0.475322,0.306630
2165,0.727114,0.439643,-0.033660
2170,-0.288501,-0.521489,-0.204468
2175,-0.688178,-0.397337,0.000230
2180,0.183557,0.387270,0.363946
2185,0.727580,0.443768,0.056788
2190,-0.145526,-0.449345,-0.308348
2195,-0.801249,-0.479582,0.023668
2200,0.272245,0.466338,0.253447
2205,0.779980,0.423590,-0.038475
2210,-0.356877,-0.423378,-0.348577
2215,-0.800476,-0.427185,-0.076879
2220,0.190577,0.415144,0.199899
2225,0.710088,0.353763,0.036317
2230,-0.241891,-0.369924,-0.313311
2235,-0.723758,-0.409041,0.029606
2240,0.249580,0.439558,0.371927
2245,0.743834,0.436972,0.051170
2250,-0.222474,-0.451829,-0.289915
2255,-0.744129,-0.471984,0.013258
2260,0.297081,0.451628,0.234303
2265,0.726142,0.407655,-0.008243
2270,-0.182120,-0.409476,-0.295053
2275,-0.721705,-0.448601,-0.071606
2280,0.190558,0.511592,0.318499
2285,0.781619,0.467196,0.092737
2290,-0.305367,-0.454894,-0.236473
2295,-0.761980,-0.379744,-0.045597
2300,0.225699,0.385697,0.273306
2305,0.854075,0.419095,-0.011379
2310,-0.249501,-0.409463,-0.283651
2315,-0.719589,-0.448049,0.106294
2320,0.290211,0.385530,0.277879
2325,0.808220,0.433976,-0.014063
2330,-0.254699,-0.417708,-0.343590
2335,-0.803727,-0.439987,-0.008419
2340,0.216885,0.455700,0.351760
2345,0.742886,0.447335,0.012851
2350,-0.279742,-0.422897,-0.388799
2355,-0.837238,-0.479316,0.025822
2360,0.229790,0.529120,0.170060
2365,0.688951,0.306479,0.004841
2370,-0.184473,-0.336921,-0.324278
2375,-0.770132,-0.453345,-0.024533
2380,0.255088,0.430428,0.352585
2385,0.766468,0.449253,-0.059618
2390,-0.250420,-0.451930,-0.336189
2395,-0.804102,-0.379175,0.038739
2400,0.274836,0.366620,0.300469
2405,0.762336,0.406167,0.182476
2410,-0.206853,-0.421088,-0.314825
2415,-0.753322,-0.397049,0.105113
2420,0.189982,0.373263,0.298499
2425,0.662854,0.445892,0.026434
2430,-0.191436,-0.425622,-0.322764
2435,-0.805508,-0.556286,-0.107582
2440,0.173559,0.452234,0.247128
2445,0.748368,0.456148,0.032229
2450,-0.208383,-0.508228,-0.223504
2455,-0.838564,-0.388677,-0.040304
2460,0.282574,0.425914,0.286020
2465,0.791265,0.418840,0.077096
2470,-0.233043,-0.447239,-0.269752
2475,-0.875378,-0.441394,-0.008007
2480,0.193746,0.422296,0.294181
2485,0.760197,0.464910,0.012231
2490,-0.255511,-0.347450,-0.275629
2495,-0.752682,-0.461268,-0.065265
2500,0.308055,0.405768,0.313047
2505,0.802602,0.415233,-0.059257
2510,-0.172704,-0.424790,-0.367147
2515,-0.724067,-0.354983,0.010696
2520,0.289976,0.399248,0.274478
2525,0.784155,0.453683,0.039736
2530,-0.291971,-0.396374,-0.261719
2535,-0.738011,-0.405333,-0.020399
2540,0.249667,0.524993,0.303626
2545,0.814146,0.330566,-0.072493
2550,-0.193061,-0.459336,-0.360935
2555,-0.766090,-0.445419,0.072878
2560,0.306890,0.448893,0.342744
2565,0.773625,0.383084,0.077975
2570,-0.222533,-0.381123,-0.316204
2575,-0.759728,-0.436919,-0.025612
2580,0.343610,0.502515,0.351677
2585,0.738764,0.420110,0.053120
2590,-0.324950,-0.431311,-0.297810
2595,-0.735756,-0.334122,-0.056379
2600,0.255901,0.356503,0.212999
2605,0.769985,0.490284,-0.070937
2610,-0.205938,-0.409169,-0.305584
2615,-0.692598,-0.326104,0.012582
2620,0.262438,0.404194,0.302248
2625,0.856270,0.385732,0.008495
2630,-0.260004,-0.425110,-0.313904
2635,-0.824674,-0.523957,0.041758
2640,0.255398,0.402261,0.261799
2645,0.803941,0.444218,0.015951
2650,-0.273279,-0.356401,-0.334335
2655,-0.752373,-0.457010,-0.090683
2660,0.190740,0.448522,0.290223
2665,0.825393,0.430426,0.013665
2670,-0.249727,-0.454540,-0.320504
2675,-0.829942,-0.415723,-0.045867
2680,0.252283,0.422600,0.353563
2685,0.792117,0.418949,0.014515
2690,-0.340626,-0.417549,-0.344536
2695,-0.736574,-0.381850,-0.093028
2700,0.264549,0.502600,0.278126
2705,0.729237,0.499434,0.040741
2710,-0.223948,-0.377691,-0.376290
2715,-0.737516,-0.490200,-0.036645
2720,0.306437,0.411212,0.443227
2725,0.779322,0.380731,0.032699
2730,-0.268006,-0.337939,-0.310329
2735,-0.753798,-0.449012,0.014736
2740,0.228861,0.434522,0.334936
2745,0.662464,0.381126,-0.034537
2750,-0.214463,-0.405414,-0.312244
2755,-0.777671,-0.515317,0.041942
2760,0.330475,0.421108,0.255122
2765,0.753244,0.339568,0.015279
2770,-0.169468,-0.340085,-0.300917
2775,-0.808525,-0.394648,-0.028652
2780,0.269678,0.458073,0.288932
2785,0.779176,0.474376,-0.089769
2790,-0.196885,-0.430639,-0.339082
2795,-0.803047,-0.483091,0.022030
2800,0.240941,0.396144,0.202012
2805,0.737442,0.379480,-0.116030
2810,-0.192517,-0.416285,-0.280446
2815,-0.731814,-0.477903,0.007200
2820,0.128565,0.363050,0.260597
2825,0.715171,0.515610,0.033553
2830,-0.261741,-0.371907,-0.261447
2835,-0.695653,-0.402467,0.074785
2840,0.250414,0.365026,0.292621
2845,0.858045,0.429784,-0.004433
2850,-0.206825,-0.512456,-0.280431
2855,-0.822183,-0.389502,0.037738
2860,0.208169,0.361575,0.310120
2865,0.770959,0.483438,0.058122
2870,-0.215737,-0.427100,-0.286883
2875,-0.755307,-0.346197,0.054654
2880,0.327637,0.420263,0.308409
2885,0.809682,0.477851,0.086078
2890,-0.246533,-0.396129,-0.265223
2895,-0.694548,-0.504104,-0.098279
2900,0.271152,0.385909,0.293934
2905,0.754426,0.428063,-0.023269
2910,-0.209606,-0.488372,-0.234765
2915,-0.817306,-0.447997,0.043928
2920,0.229067,0.398948,0.424734
2925,0.767195,0.496736,0.050301
2930,-0.209961,-0.375597,-0.325349
2935,-0.804808,-0.438308,0.062599
2940,0.233722,0.425827,0.312917
2945,0.835718,0.355338,-0.041230
2950,-0.225382,-0.314764,-0.318453
2955,-0.778057,-0.384245,0.093908
2960,0.177791,0.439307,0.270761
2965,0.814848,0.409636,0.150634
2970,-0.308366,-0.452107,-0.301145
2975,-0.729625,-0.390898,-0.026994
2980,0.195504,0.396556,0.249394
2985,0.767420,0.424468,-0.001355
2990,-0.211029,-0.404592,-0.371419
2995,-0.789428,-0.456275,-0.002463
3000,0.316257,0.364596,0.409886
3005,0.733152,0.470201,-0.059224
3010,-0.205226,-0.440787,-0.242637
3015,-0.690023,-0.359323,-0.019868
3020,0.169743,0.409793,0.279889
3025,0.713363,0.440875,0.020689
3030,-0.258769,-0.422178,-0.237212
3035,-0.738955,-0.369949,-0.017162
3040,0.253611,0.369413,0.239638
3045,0.789266,0.443177,-0.000349
3050,-0.272883,-0.446286,-0.370090
3055,-0.810508,-0.435755,0.033909
3060,0.230261,0.439136,0.280053
3065,0.736184,0.441047,0.029716
3070,-0.328212,-0.479408,-0.266757
3075,-0.796296,-0.471302,0.113721
3080,0.260879,0.409526,0.336472
3085,0.800540,0.431491,-0.049208
3090,-0.237085,-0.427580,-0.308617
3095,-0.748795,-0.421853,0.008920
3100,0.262166,0.482945,0.226737
3105,0.842932,0.386253,0.000298
3110,-0.215929,-0.385429,-0.287161
3115,-0.793252,-0.364596,-0.023598
3120,0.272585,0.479095,0.289182
3125,0.891118,0.397482,0.098666
3130,-0.327499,-0.449019,-0.247966
3135,-0.776350,-0.386924,-0.012208
3140,0.287273,0.496823,0.277702
3145,0.754147,0.381593,-0.002481
3150,-0.273189,-0.312204,-0.221530
3155,-0.778338,-0.400797,0.032094
3160,0.236760,0.369161,0.257111
3165,0.773197,0.453035,-0.014287
3170,-0.255688,-0.416835,-0.236440
3175,-0.803511,-0.371170,0.074453
3180,0.288999,0.412885,0.276139
3185,0.706101,0.449886,-0.106689
3190,-0.203178,-0.422828,-0.276879
3195,-0.749155,-0.367999,0.044835
3200,0.319893,0.517762,0.277374
3205,0.830030,0.478533,0.020470
3210,-0.297755,-0.315630,-0.341766
3215,-0.823759,-0.399372,0.025332
3220,0.252985,0.367878,0.301361
3225,0.742923,0.382548,-0.061007
3230,-0.218532,-0.503843,-0.296554
3235,-0.722652,-0.531529,-0.017209
3240,0.201243,0.418320,0.314320
3245,0.758889,0.387746,-0.079159
3250,-0.199235,-0.423554,-0.254013
3255,-0.847157,-0.392260,-0.048474
3260,0.266554,0.526782,0.166121
3265,0.811079,0.439780,0.009120
3270,-0.325973,-0.398170,-0.338688
3275,-0.774144,-0.460654,0.003319
3280,0.283504,0.414315,0.297927
3285,0.833095,0.325416,0.034844
3290,-0.136752,-0.390540,-0.310935
3295,-0.714373,-0.406450,-0.018311
3300,0.171705,0.443287,0.274189
3305,0.756814,0.403634,-0.060950
3310,-0.243230,-0.448451,-0.223895
3315,-0.777189,-0.481174,-0.012738
3320,0.214006,0.471796,0.217409
3325,0.776535,0.422658,0.005327
3330,-0.196039,-0.513679,-0.239106
3335,-0.733172,-0.452807,0.033673
3340,0.219883,0.371036,0.260535
3345,0.931837,0.401256,-0.029047
3350,-0.243670,-0.443133,-0.325811
3355,-0.745274,-0.354369,0.030851
3360,0.252477,0.403158,0.300928
3365,0.712895,0.404015,-0.014709
3370,-0.298678,-0.383821,-0.271021
3375,-0.742261,-0.432903,-0.090273
3380,0.211125,0.357001,0.229948
3385,0.825779,0.388356,0.036190
3390,-0.217807,-0.373518,-0.328457
3395,-0.726299,-0.438196,-0.099964
3400,0.227380,0.459890,0.329398
3405,0.761134,0.398686,-0.019083
3410,-0.382179,-0.367645,-0.343767
3415,-0.835450,-0.429699,-0.078728
3420,0.173021,0.350162,0.304767
3425,0.750792,0.400407,0.030893
3430,-0.236719,-0.414348,-0.258240
3435,-0.727753,-0.364681,-0.003992
3440,0.332794,0.453755,0.241494
3445,0.738404,0.413008,0.002020
3450,-0.192568,-0.411473,-0.293371
3455,-0.767455,-0.429635,0.008314
3460,0.224180,0.402000,0.302677
3465,0.786313,0.465608,0.002071
3470,-0.253878,-0.450957,-0.193046
3475,-0.787209,-0.376044,-0.030426
3480,0.206480,0.498749,0.326749
3485,0.849018,0.443801,-0.017791
3490,-0.312703,-0.418264,-0.308645
3495,-0.778917,-0.377354,0.010640
3500,0.296132,0.546654,0.168971
3505,0.702257,0.415195,0.050055
3510,-0.192125,-0.485907,-0.332235
3515,-0.776708,-0.306715,0.107579
3520,0.243413,0.507002,0.274843
3525,0.716693,0.361964,-0.088609
3530,-0.162513,-0.392788,-0.331736
3535,-0.788659,-0.499156,0.025605
3540,0.349218,0.414342,0.291336
3545,0.803931,0.488478,0.008806
3550,-0.321135,-0.442585,-0.296501
3555,-0.792463,-0.469629,0.015724
3560,0.214891,0.493016,0.334710
3565,0.840459,0.549182,0.044186
3570,-0.280063,-0.496682,-0.295300
3575,-0.816012,-0.494285,-0.002264
3580,0.322142,0.373041,0.244960
3585,0.781532,0.450307,0.078889
3590,-0.282772,-0.412408,-0.283572
3595,-0.692694,-0.443644,0.005509
3600,0.238540,0.478004,0.166220
3605,0.677580,0.360748,0.024126
3610,-0.219216,-0.430314,-0.261075
3615,-0.771228,-0.554600,-0.042322
3620,0.216175,0.407342,0.353846
3625,0.739628,0.508567,-0.070735
3630,-0.333254,-0.453237,-0.305098
3635,-0.786628,-0.381555,0.020975
3640,0.248279,0.411828,0.332832
3645,0.735898,0.383963,-0.072404
3650,-0.285078,-0.358877,-0.354099
3655,-0.770874,-0.372745,-0.066665
3660,0.256929,0.394046,0.346151
3665,0.784977,0.394480,-0.056434
3670,-0.165000,-0.357325,-0.261941
3675,-0.873002,-0.434493,-0.007697
3680,0.297577,0.442471,0.218750
3685,0.834900,0.481270,0.026183
3690,-0.346209,-0.383576,-0.326077
3695,-0.798724,-0.345420,-0.002754
3700,0.379596,0.375082,0.306596
3705,0.757497,0.351436,0.045275
3710,-0.234784,-0.410086,-0.178921
3715,-0.848823,-0.412139,0.008288
3720,0.266830,0.379980,0.323669
3725,0.668218,0.447878,-0.025611
3730,-0.156457,-0.471822,-0.328886
3735,-0.774358,-0.371314,-0.076149
3740,0.309151,0.408747,0.256255
3745,0.761365,0.368452,-0.020935
3750,-0.200163,-0.456438,-0.379954
3755,-0.777960,-0.367075,-0.021405
3760,0.347115,0.524472,0.285406
3765,0.761156,0.339519,0.002411
3770,-0.256402,-0.477045,-0.236835
3775,-0.747450,-0.390531,0.026530
3780,0.307577,0.362276,0.333607
3785,0.731975,0.445704,-0.040881
3790,-0.305488,-0.445267,-0.313751
3795,-0.729176,-0.390250,-0.083126
3800,0.219800,0.467767,0.354184
3805,0.760296,0.440072,-0.043293
3810,-0.251722,-0.403812,-0.220120
3815,-0.796073,-0.468047,0.044109
3820,0.284284,0.443401,0.262567
3825,0.787052,0.478815,-0.054384
3830,-0.271090,-0.450327,-0.313500
3835,-0.785794,-0.390082,0.025465
3840,0.248126,0.365002,0.228989
3845,0.810141,0.367337,0.022641
3850,-0.277932,-0.388045,-0.336627
3855,-0.761827,-0.450051,-0.105701
3860,0.386492,0.430917,0.367794
3865,0.648910,0.391824,0.017239
3870,-0.347916,-0.435903,-0.271635
3875,-0.673503,-0.410332,-0.064663
3880,0.169889,0.318358,0.210630
3885,0.718335,0.480384,-0.040650
3890,-0.338279,-0.476617,-0.277266
3895,-0.690870,-0.498302,0.033023
3900,0.246838,0.465982,0.280511
3905,0.774319,0.437093,-0.004471
3910,-0.265345,-0.494619,-0.423781
3915,-0.704107,-0.354890,-0.024060
3920,0.207840,0.458006,0.289266
3925,0.854809,0.465777,-0.063182
3930,-0.278792,-0.362593,-0.330807
3935,-0.773550,-0.434975,0.086069
3940,0.166567,0.475660,0.215793
3945,0.687471,0.360177,-0.024888
3950,-0.299074,-0.483619,-0.261887
3955,-0.648974,-0.467502,-0.034985
3960,0.239780,0.471589,0.295183
3965,0.755850,0.365246,0.010752
3970,-0.188657,-0.431492,-0.251022
3975,-0.767930,-0.387798,0.058885
3980,0.239300,0.475277,0.262387
3985,0.697418,0.387466,-0.027834
3990,-0.222644,-0.404647,-0.202272
3995,-0.685394,-0.445286,0.041815
4000,0.294199,0.510888,0.349856
4005,0.812073,0.474950,0.063494
4010,-0.167481,-0.447573,-0.273012
4015,-0.733321,-0.380755,-0.014212
4020,0.296001,0.470718,0.297664
4025,0.882791,0.361480,-0.105414
4030,-0.356021,-0.389759,-0.312724
4035,-0.725485,-0.531612,-0.007195
4040,0.269358,0.406716,0.323717
4045,0.749160,0.384216,0.051730
4050,-0.143919,-0.420210,-0.287852
4055,-0.849466,-0.397242,-0.085764
4060,0.118328,0.376673,0.319745
4065,0.727815,0.407704,0.018500
4070,-0.219582,-0.449961,-0.252979
4075,-0.712721,-0.455517,-0.046136
4080,0.219576,0.456108,0.333074
4085,0.823336,0.373441,-0.028024
4090,-0.188413,-0.392760,-0.355245
4095,-0.801394,-0.368000,-0.042916
4100,0.190139,0.475892,0.289493
4105,0.715583,0.455389,-0.070583
4110,-0.233319,-0.448234,-0.329798
4115,-0.801617,-0.430903,-0.008135
4120,0.184255,0.459881,0.263152
4125,0.741374,0.430450,0.002414
4130,-0.244674,-0.523604,-0.279490
4135,-0.813906,-0.479610,0.078013
4140,0.173179,0.469004,0.228559
4145,0.683236,0.491559,-0.059548
4150,-0.283621,-0.438538,-0.324839
4155,-0.749881,-0.405967,-0.021220
4160,0.226036,0.422344,0.350837
4165,0.743907,0.391225,0.073606
4170,-0.247374,-0.419083,-0.295117
4175,-0.727288,-0.288555,0.026013
4180,0.268578,0.329640,0.336830
4185,0.725012,0.385565,0.012389
4190,-0.211495,-0.475387,-0.303897
4195,-0.708044,-0.406932,-0.033356
4200,0.286655,0.422547,0.211796
4205,0.751709,0.478162,0.041572
4210,-0.278567,-0.411395,-0.302246
4215,-0.730169,-0.463204,-0.066508
4220,0.245915,0.507931,0.289555
4225,0.770913,0.406335,0.007389
4230,-0.225416,-0.396393,-0.361608
4235,-0.707656,-0.501194,0.039291
4240,0.319397,0.370488,0.321942
4245,0.710782,0.347268,0.054060
4250,-0.157563,-0.405962,-0.291904
4255,-0.773531,-0.324761,0.105603
4260,0.157400,0.392936,0.250477
4265,0.857160,0.464572,0.016733
4270,-0.211139,-0.319014,-0.387465
4275,-0.804662,-0.378739,0.015200
4280,0.237218,0.453617,0.331276
4285,0.800502,0.416338,0.058961
4290,-0.238862,-0.409458,-0.328372
4295,-0.816948,-0.393279,-0.001391
4300,0.236452,0.420897,0.283591
4305,0.717189,0.426276,0.024455
4310,-0.182335,-0.402877,-0.312761
4315,-0.779768,-0.454228,-0.017293
4320,0.256060,0.396786,0.247769
4325,0.732294,0.361507,-0.030600
4330,-0.233426,-0.436097,-0.307003
4335,-0.749930,-0.363044,0.014102
4340,0.206267,0.395556,0.314936
4345,0.677917,0.471543,0.045052
4350,-0.292373,-0.456367,-0.311134
4355,-0.706502,-0.367905,0.020834
4360,0.211659,0.410579,0.340105
4365,0.826420,0.392903,-0.057493
4370,-0.277723,-0.381369,-0.278034
4375,-0.734359,-0.376110,0.032756
4380,0.179749,0.463374,0.277245
4385,0.721837,0.490804,0.029850
4390,-0.259824,-0.552889,-0.249284
4395,-0.773589,-0.527787,0.005053
4400,0.244742,0.456560,0.232757
4405,0.766988,0.415558,0.032309
4410,-0.249237,-0.324737,-0.288446
4415,-0.780169,-0.474916,0.042207
4420,0.212832,0.370658,0.348200
4425,0.806644,0.423178,0.050194
4430,-0.159439,-0.450478,-0.291596
4435,-0.749446,-0.446360,0.032773
4440,0.232679,0.390819,0.342993
4445,0.709902,0.457978,-0.000791
4450,-0.268700,-0.399533,-0.341472
4455,-0.792951,-0.395917,-0.000099
4460,0.268315,0.425474,0.299196
4465,0.747793,0.360273,-0.017763
4470,-0.248184,-0.535195,-0.302160
4475,-0.649118,-0.438785,0.028009
4480,0.244631,0.392828,0.265096
4485,0.731330,0.384852,-0.014545
4490,-0.238481,-0.387379,-0.236029
4495,-0.851288,-0.480417,0.092414
4500,0.201027,0.433067,0.279850
4505,0.812728,0.394929,-0.034431
4510,-0.187753,-0.402722,-0.351051
4515,-0.739515,-0.451531,0.042490
4520,0.199056,0.449749,0.234745
4525,0.772098,0.437810,0.052711
4530,-0.206542,-0.482527,-0.309073
4535,-0.750867,-0.470627,0.045207
4540,0.145042,0.529762,0.322791
4545,0.748639,0.405120,-0.027429
4550,-0.118989,-0.415428,-0.375649
4555,-0.754801,-0.350525,0.057447
4560,0.164693,0.453350,0.245831
4565,0.758913,0.396346,0.105166
4570,-0.167804,-0.447974,-0.239375
4575,-0.796378,-0.360578,0.052214
4580,0.217854,0.384615,0.295733
4585,0.825582,0.370604,0.018640
4590,-0.341869,-0.401354,-0.308595
4595,-0.756157,-0.370428,0.001874
4600,0.275597,0.509809,0.343954
4605,0.735157,0.467852,-0.040682
4610,-0.182286,-0.448634,-0.231321
4615,-0.844160,-0.373383,0.041922
4620,0.265908,0.514278,0.273477
4625,0.732267,0.346158,-0.113158
4630,-0.243578,-0.316329,-0.290330
4635,-0.794081,-0.405454,-0.025549
4640,0.232211,0.422983,0.251173
4645,0.724809,0.374527,0.077015
4650,-0.241991,-0.472555,-0.306458
4655,-0.704044,-0.392117,0.013321
4660,0.110900,0.537017,0.314459
4665,0.760286,0.409834,-0.073072
4670,-0.331466,-0.514354,-0.238743
4675,-0.774209,-0.467872,-0.083474
4680,0.272702,0.474813,0.301948
4685,0.762942,0.390080,0.033906
4690,-0.211258,-0.384659,-0.326376
4695,-0.739681,-0.315919,-0.031553
4700,0.255795,0.502069,0.296429
4705,0.719611,0.373111,-0.000821
4710,-0.207136,-0.501838,-0.251683
4715,-0.796098,-0.460288,0.009218
4720,0.213895,0.531173,0.226706
4725,0.840455,0.481405,-0.094219
4730,-0.312927,-0.465239,-0.245224
4735,-0.767740,-0.549891,0.016031
4740,0.268359,0.474333,0.305952
4745,0.634018,0.444864,0.035318
4750,-0.251670,-0.421843,-0.265054
4755,-0.759280,-0.453043,-0.034196
4760,0.221317,0.496529,0.243837
4765,0.776643,0.443472,-0.069535
4770,-0.261964,-0.559081,-0.238471
4775,-0.756502,-0.483711,0.046457
4780,0.285713,0.488825,0.260762
4785,0.742274,0.471474,-0.052765
4790,-0.186919,-0.478234,-0.264698
4795,-0.715434,-0.421724,0.088912
4800,0.251117,0.390209,0.322194
4805,0.750438,0.344885,-0.025966
4810,-0.231137,-0.436486,-0.207263
4815,-0.807109,-0.484707,0.041476
4820,0.279750,0.437550,0.280327
4825,0.644143,0.407537,0.031744
4830,-0.300770,-0.473313,-0.357261
4835,-0.754560,-0.442484,0.104351
4840,0.199730,0.476344,0.316923
4845,0.773821,0.412826,0.001740
4850,-0.305106,-0.487894,-0.254942
4855,-0.788004,-0.416772,0.032366
4860,0.293065,0.429856,0.301424
4865,0.744410,0.398410,-0.000592
4870,-0.306612,-0.392645,-0.232283
4875,-0.799682,-0.383412,-0.032398
4880,0.218903,0.491342,0.258504
4885,0.744957,0.371602,0.032492
4890,-0.135649,-0.406346,-0.316047
4895,-0.833155,-0.384663,0.034053
4900,0.192605,0.475107,0.203190
4905,0.739155,0.385817,0.005744
4910,-0.255009,-0.540825,-0.228243
4915,-0.787162,-0.409627,0.011642
4920,0.229630,0.508107,0.289206
4925,0.750347,0.377660,0.014790
4930,-0.305445,-0.381226,-0.375291
4935,-0.800603,-0.510763,-0.023547
4940,0.302966,0.429573,0.293526
4945,0.771529,0.485599,0.037722
4950,-0.217717,-0.486131,-0.355751
4955,-0.752144,-0.388474,0.123323
4960,0.278237,0.371271,0.339457
4965,0.829813,0.385200,-0.060686
4970,-0.244317,-0.406104,-0.356662
4975,-0.827036,-0.578915,-0.087227
4980,0.272379,0.395909,0.216515
4985,0.747176,0.418390,0.006099
4990,-0.245278,-0.332151,-0.301917
4995,-0.800872,-0.387347,0.038535
5000,0.294373,0.334290,0.238617
5005,0.831947,0.358170,0.015620
5010,-0.204266,-0.407079,-0.294654
5015,-0.756413,-0.427306,0.004274
5020,0.290738,0.397718,0.274638
5025,0.791549,0.427259,0.052887
5030,-0.229440,-0.414994,-0.229715
5035,-0.669416,-0.500995,-0.058657
5040,0.266399,0.447776,0.294482
5045,0.735124,0.447596,0.035992
5050,-0.220008,-0.373677,-0.345768
5055,-0.754360,-0.454105,-0.006883
5060,0.204567,0.329203,0.249110
5065,0.731407,0.391109,0.102728
5070,-0.187783,-0.470095,-0.292606
5075,-0.728040,-0.460163,0.061296
5080,0.296450,0.410448,0.278561
5085,0.834604,0.400560,0.056001
5090,-0.296133,-0.383042,-0.372902
5095,-0.712629,-0.557752,0.027836
5100,0.194667,0.391792,0.266830
5105,0.694130,0.393243,0.011757
5110,-0.241874,-0.401451,-0.304813
5115,-0.836688,-0.380431,-0.014442
5120,0.223404,0.487098,0.252003
5125,0.714886,0.361400,0.006026
5130,-0.097816,-0.450754,-0.253790
5135,-0.726198,-0.410854,0.030923
5140,0.200796,0.429595,0.190220
5145,0.778165,0.380201,-0.044583
5150,-0.300061,-0.521070,-0.332613
5155,-0.798644,-0.418541,0.067947
5160,0.233149,0.536609,0.231995
5165,0.807031,0.388241,0.095944
5170,-0.216319,-0.438021,-0.246536
5175,-0.777858,-0.371522,-0.021839
5180,0.361936,0.456153,0.318917
5185,0.818254,0.335305,-0.063593
5190,-0.269886,-0.390322,-0.261069
5195,-0.643422,-0.348372,-0.028278
5200,0.293028,0.437816,0.298344
5205,0.683443,0.485532,0.021037
5210,-0.216795,-0.392772,-0.328283
5215,-0.718275,-0.458005,-0.013502
5220,0.253867,0.416143,0.334659
5225,0.685698,0.466311,-0.054921
5230,-0.252516,-0.471842,-0.351709
5235,-0.746853,-0.367293,0.020209
5240,0.196820,0.431307,0.338465
5245,0.725921,0.360594,0.003531
5250,-0.115326,-0.434422,-0.344824
5255,-0.831550,-0.398009,-0.030821
5260,0.289893,0.414790,0.286774
5265,0.799106,0.479506,-0.023157
5270,-0.244430,-0.390761,-0.251697
5275,-0.762533,-0.385825,0.023641
5280,0.255555,0.494338,0.123077
5285,0.819918,0.382022,-0.002427
5290,-0.235478,-0.553779,-0.297399
5295,-0.745014,-0.477132,0.055328
5300,0.194127,0.483672,0.217860
5305,0.747261,0.446637,-0.015595
5310,-0.272918,-0.399252,-0.280358
5315,-0.727411,-0.420962,0.053485
5320,0.300613,0.417742,0.246469
5325,0.766155,0.454219,0.065787
5330,-0.164595,-0.447682,-0.388425
5335,-0.728945,-0.408882,0.045824
5340,0.221490,0.531992,0.299309
5345,0.800800,0.343069,-0.046263
5350,-0.228949,-0.479709,-0.236458
5355,-0.651931,-0.425712,-0.004920
5360,0.231075,0.476230,0.300193
5365,0.846093,0.346251,-0.104899
5370,-0.221875,-0.389236,-0.243532
5375,-0.705222,-0.413566,-0.052708
5380,0.181273,0.503737,0.301169
5385,0.771692,0.434283,0.049025
5390,-0.200665,-0.364054,-0.325213
5395,-0.785976,-0.426459,0.039737
5400,0.274726,0.380301,0.251586
5405,0.819395,0.491657,-0.028037
5410,-0.223490,-0.388427,-0.344985
5415,-0.735922,-0.419708,-0.019346
5420,0.160269,0.502831,0.397120
5425,0.734667,0.448416,-0.070272
5430,-0.254908,-0.454148,-0.267603
5435,-0.820553,-0.439300,-0.040268
5440,0.277002,0.455708,0.298139
5445,0.798643,0.464820,-0.011033
5450,-0.157623,-0.488663,-0.226043
5455,-0.676164,-0.340334,0.099322
5460,0.254005,0.552555,0.315409
5465,0.726522,0.394333,-0.023826
5470,-0.262671,-0.452587,-0.278081
5475,-0.732639,-0.393469,-0.067461
5480,0.199323,0.415323,0.269879
5485,0.630979,0.365692,0.016728
5490,-0.303205,-0.474540,-0.328869
5495,-0.838682,-0.402843,-0.016688
5500,0.262061,0.423197,0.375472
5505,0.819474,0.369903,0.000823
5510,-0.178341,-0.361823,-0.328893
5515,-0.768812,-0.405730,0.015167
5520,0.268895,0.512285,0.328358
5525,0.790009,0.436054,0.041912
5530,-0.233988,-0.405997,-0.344278
5535,-0.635891,-0.392221,0.003015
5540,0.201586,0.391210,0.295197
5545,0.811684,0.407423,0.014596
5550,-0.242353,-0.416137,-0.238677
5555,-0.665671,-0.431340,0.009145
5560,0.242845,0.455856,0.263289
5565,0.765442,0.460844,-0.014856
5570,-0.229968,-0.366816,-0.269792
5575,-0.817054,-0.446836,0.066434
5580,0.299161,0.424877,0.326246
5585,0.699336,0.380248,-0.016510
5590,-0.284714,-0.456178,-0.341003
5595,-0.718673,-0.428336,-0.049760
5600,0.237472,0.427319,0.343496
5605,0.718025,0.374470,0.034575
5610,-0.189529,-0.531214,-0.293617
5615,-0.761644,-0.386391,0.048531
5620,0.232075,0.406132,0.309245
5625,0.773601,0.381102,0.039915
5630,-0.242382,-0.491095,-0.285030
5635,-0.824853,-0.416858,0.040570
5640,0.207965,0.417232,0.257094
5645,0.717636,0.415482,-0.054042
5650,-0.126187,-0.473196,-0.308657
5655,-0.793504,-0.352210,-0.010322
5660,0.263193,0.460153,0.310245
5665,0.733502,0.455535,0.013209
5670,-0.287051,-0.450490,-0.281623
5675,-0.802691,-0.415534,-0.090833
5680,0.223678,0.409490,0.272070
5685,0.692716,0.480288,0.022547
5690,-0.248013,-0.472778,-0.265873
5695,-0.834955,-0.417105,0.010536
5700,0.241696,0.376433,0.267748
5705,0.753266,0.397589,-0.005868
5710,-0.291719,-0.381900,-0.259312
5715,-0.866729,-0.303113,-0.024614
5720,0.316195,0.471117,0.295235
5725,0.787622,0.359733,-0.051947
5730,-0.193085,-0.406766,-0.325781
5735,-0.748885,-0.340876,-0.031267
5740,0.382300,0.365297,0.300448
5745,0.733626,0.391331,-0.040211
5750,-0.312211,-0.490738,-0.235237
5755,-0.768701,-0.436568,-0.061816
5760,0.160755,0.491280,0.131066
5765,0.732084,0.417372,0.017982
5770,-0.261364,-0.330244,-0.341359
5775,-0.786544,-0.422314,0.033584
5780,0.204684,0.421803,0.376502
5785,0.706840,0.432881,-0.049131
5790,-0.242751,-0.438575,-0.280917
5795,-0.808172,-0.435760,0.015546
5800,0.307990,0.390918,0.414155
5805,0.786406,0.384682,0.131878
5810,-0.255102,-0.457874,-0.257247
5815,-0.764170,-0.415031,-0.090294
5820,0.265761,0.385799,0.313207
5825,0.725008,0.339555,-0.020160
5830,-0.196742,-0.426109,-0.378328
5835,-0.708879,-0.396732,0.025574
5840,0.224819,0.477835,0.441503
5845,0.730806,0.432892,0.051474
5850,-0.295287,-0.409311,-0.302112
5855,-0.783076,-0.428467,0.039399
5860,0.134595,0.416665,0.196360
5865,0.731835,0.503116,-0.037404
5870,-0.244722,-0.420888,-0.261833
5875,-0.828354,-0.432169,0.025681
5880,0.259919,0.437705,0.334908
5885,0.648463,0.452617,-0.111250
5890,-0.199218,-0.550736,-0.272877
5895,-0.671773,-0.442281,-0.143639
5900,0.237287,0.372483,0.311936
5905,0.754691,0.341908,-0.012082
5910,-0.203272,-0.410916,-0.450061
5915,-0.654877,-0.383030,-0.007090
5920,0.261864,0.446494,0.278976
5925,0.813656,0.410007,0.043208
5930,-0.202676,-0.388046,-0.203574
5935,-0.800912,-0.450351,-0.010185
5940,0.290915,0.425615,0.309163
5945,0.643791,0.411481,-0.090390
5950,-0.261883,-0.465381,-0.355968
5955,-0.789556,-0.401451,0.072040
5960,0.229055,0.433611,0.274071
5965,0.790702,0.357221,-0.056836
5970,-0.328577,-0.475176,-0.313394
5975,-0.731765,-0.432893,-0.027781
5980,0.200238,0.447670,0.356617
5985,0.774778,0.496898,-0.000294
5990,-0.219072,-0.321015,-0.347351
5995,-0.827628,-0.441435,-0.003117
6000,0.245705,0.385953,0.351056
6005,0.741767,0.460328,0.032325
6010,-0.244994,-0.423899,-0.311577
6015,-0.622347,-0.374604,0.009706
6020,0.304084,0.515287,0.286643
6025,0.832218,0.365224,0.061077
6030,-0.229173,-0.425165,-0.259301
6035,-0.739318,-0.438149,0.041118
6040,0.314022,0.456936,0.323400
6045,0.816960,0.362348,-0.057577
6050,-0.275825,-0.468496,-0.300136
6055,-0.826538,-0.406810,-0.031570
6060,0.223332,0.461885,0.272810
6065,0.786389,0.449958,0.004114
6070,-0.235550,-0.433581,-0.301460
6075,-0.700013,-0.303248,-0.010259
6080,0.202340,0.515078,0.259037
6085,0.751642,0.357833,-0.002458
6090,-0.182109,-0.386597,-0.300667
6095,-0.828825,-0.439507,0.031477
6100,0.153711,0.495619,0.241414
6105,0.727598,0.326876,-0.014148
6110,-0.255229,-0.495409,-0.337561
6115,-0.721072,-0.471003,-0.013795
6120,0.254830,0.362222,0.298217
6125,0.714842,0.418130,-0.019381
6130,-0.249383,-0.467166,-0.258259
6135,-0.652756,-0.394669,0.093539
6140,0.203310,0.379598,0.320313
6145,0.834596,0.513631,0.009896
6150,-0.244964,-0.383996,-0.289242
6155,-0.681195,-0.404509,-0.019650
6160,0.173746,0.424290,0.239255
6165,0.854494,0.471489,-0.036255
6170,-0.241680,-0.376486,-0.356191
6175,-0.789036,-0.424719,0.045241
6180,0.269219,0.499362,0.305359
6185,0.721442,0.440532,-0.015815
6190,-0.208375,-0.479235,-0.285831
6195,-0.733317,-0.412920,0.073995
6200,0.316539,0.392422,0.251335
6205,0.787210,0.437259,0.012897
6210,-0.202769,-0.417514,-0.336810
6215,-0.746018,-0.432138,0.038792
6220,0.179790,0.474893,0.303617
6225,0.788958,0.405922,0.015705
6230,-0.249502,-0.451176,-0.257902
6235,-0.742542,-0.448098,-0.001014
6240,0.253647,0.415641,0.215599
6245,0.678847,0.482877,0.046884
6250,-0.203967,-0.432460,-0.309580
6255,-0.821639,-0.462530,0.033058
6260,0.274006,0.362216,0.259279
6265,0.734648,0.447154,-0.018738
6270,-0.215630,-0.440325,-0.317372
6275,-0.723262,-0.404800,0.055447
6280,0.238321,0.482761,0.353753
6285,0.796901,0.506213,-0.048988
6290,-0.198283,-0.446579,-0.266309
6295,-0.804806,-0.386859,-0.030100
6300,0.220545,0.452992,0.261589
6305,0.774230,0.377326,-0.067422
6310,-0.206450,-0.382416,-0.371111
6315,-0.871280,-0.380434,-0.040522
6320,0.245150,0.425093,0.385111
6325,0.837676,0.419722,-0.037086
6330,-0.274636,-0.485914,-0.315459
6335,-0.701206,-0.506631,-0.038648
6340,0.250695,0.480422,0.389200
6345,0.710233,0.390756,-0.033154
6350,-0.313999,-0.516782,-0.321700
6355,-0.758723,-0.401716,-0.008021
6360,0.197309,0.475935,0.175955
6365,0.819254,0.449391,0.025352
6370,-0.256121,-0.391778,-0.337708
6375,-0.767952,-0.356902,0.018822
6380,0.212037,0.398405,0.325252
6385,0.678323,0.470583,0.142618
6390,-0.184449,-0.488858,-0.341659
6395,-0.833406,-0.379763,0.055639
6400,0.130454,0.386309,0.290761
6405,0.823734,0.430382,-0.085216
6410,-0.193412,-0.417338,-0.223164
6415,-0.756757,-0.474127,0.076511
6420,0.183099,0.508719,0.225445
6425,0.675556,0.409035,0.024742
6430,-0.227193,-0.417955,-0.260404
6435,-0.784015,-0.483747,-0.076562
6440,0.277003,0.437540,0.280746
6445,0.729278,0.450621,-0.063904
6450,-0.252489,-0.484125,-0.344682
6455,-0.756251,-0.379181,0.108219
6460,0.220860,0.571642,0.189341
6465,0.648564,0.284937,0.059682
6470,-0.282777,-0.385402,-0.301506
6475,-0.754185,-0.404268,-0.017677
6480,0.164767,0.471401,0.338509
6485,0.778164,0.392422,0.074663
6490,-0.166063,-0.387147,-0.279659
6495,-0.715475,-0.447015,0.039535
6500,0.220557,0.393244,0.273896
6505,0.720858,0.412744,-0.017716
6510,-0.304466,-0.409381,-0.343291
6515,-0.721742,-0.329020,0.051740
6520,0.285446,0.325809,0.325170
6525,0.734414,0.417104,0.023447
6530,-0.164933,-0.393880,-0.302223
6535,-0.776124,-0.390831,0.052497
6540,0.162152,0.432742,0.296165
6545,0.870192,0.423300,0.046198
6550,-0.178779,-0.446976,-0.229682
6555,-0.757899,-0.380741,0.038087
6560,0.202469,0.447068,0.312850
6565,0.806010,0.434918,-0.039908
6570,-0.221494,-0.450983,-0.294187
6575,-0.799677,-0.360783,0.073843
6580,0.254862,0.358270,0.297392
6585,0.777946,0.431255,-0.037602
6590,-0.254308,-0.381552,-0.276153
6595,-0.723588,-0.472283,-0.060093
6600,0.338583,0.456569,0.275519
6605,0.713957,0.364246,-0.040180
6610,-0.255026,-0.452653,-0.219519
6615,-0.722715,-0.395930,-0.064457
6620,0.306349,0.431884,0.206632
6625,0.799141,0.385660,-0.035018
6630,-0.231212,-0.395030,-0.321952
6635,-0.781395,-0.400846,0.086118
6640,0.166494,0.465292,0.236787
6645,0.713294,0.393881,-0.041085
6650,-0.242899,-0.456013,-0.257470
6655,-0.705962,-0.399761,0.026370
6660,0.229575,0.497666,0.323908
6665,0.851469,0.368879,0.007647
6670,-0.217807,-0.509282,-0.196670
6675,-0.740685,-0.369534,0.061815
6680,0.265131,0.328439,0.287328
6685,0.789610,0.436928,0.054432
6690,-0.237050,-0.413472,-0.245541
6695,-0.787686,-0.394251,-0.026075
6700,0.272409,0.441061,0.421987
6705,0.853004,0.481208,0.023120
6710,-0.246238,-0.374948,-0.311029
6715,-0.817883,-0.437286,0.058653
6720,0.153640,0.448988,0.284476
6725,0.815860,0.392177,-0.032823
6730,-0.248169,-0.468320,-0.252693
6735,-0.727343,-0.452805,0.062815
6740,0.261572,0.394298,0.331334
6745,0.769828,0.449027,0.025766
6750,-0.210308,-0.403551,-0.369744
6755,-0.754542,-0.423348,-0.028922
6760,0.260074,0.387273,0.432743
6765,0.781513,0.466825,-0.000249
6770,-0.224474,-0.441581,-0.362467
6775,-0.621981,-0.457110,-0.036719
6780,0.284053,0.336595,0.362063
6785,0.803818,0.424260,-0.001373
6790,-0.269674,-0.404908,-0.346615
6795,-0.739087,-0.566425,0.016319
6800,0.282725,0.392055,0.344122
6805,0.650863,0.500747,0.004402
6810,-0.175240,-0.423748,-0.326108
6815,-0.735149,-0.474677,-0.051780
6820,0.219187,0.377250,0.313985
6825,0.645831,0.449959,-0.098269
6830,-0.222408,-0.514797,-0.280522
6835,-0.754993,-0.491352,0.064619
6840,0.279625,0.497010,0.308530
6845,0.837272,0.462443,0.018656
6850,-0.266268,-0.366124,-0.238565
6855,-0.727901,-0.399236,0.041259
6860,0.174354,0.453537,0.335798
6865,0.845076,0.392945,0.017660
6870,-0.188828,-0.457627,-0.407848
6875,-0.785110,-0.509108,-0.004034
6880,0.251062,0.513126,0.343421
6885,0.732210,0.364707,0.029525
6890,-0.225053,-0.438585,-0.248038
6895,-0.816207,-0.438114,0.013776
6900,0.287289,0.373566,0.210040
6905,0.720397,0.392599,-0.021646
6910,-0.159498,-0.453657,-0.232234
6915,-0.695932,-0.432013,-0.059386
6920,0.268211,0.390239,0.305981
6925,0.802420,0.416933,-0.007202
6930,-0.239148,-0.419537,-0.225075
6935,-0.770052,-0.421139,-0.040775
6940,0.212051,0.439529,0.360021
6945,0.773277,0.431911,-0.019424
6950,-0.291116,-0.525740,-0.342911
6955,-0.815155,-0.412957,-0.031927
6960,0.270348,0.362202,0.234103
6965,0.819467,0.365385,0.039909
6970,-0.280655,-0.450726,-0.304622
6975,-0.738141,-0.353908,0.056859
6980,0.279690,0.436335,0.226345
6985,0.748641,0.380591,0.042830
6990,-0.143730,-0.482641,-0.360522
6995,-0.818234,-0.407215,-0.088189
7000,0.167892,0.413432,0.335368
7005,0.736852,0.490409,-0.058243
7010,-0.170627,-0.480092,-0.317495
7015,-0.791715,-0.363641,-0.015847
7020,0.227362,0.424588,0.386804
7025,0.801832,0.397120,0.084416
7030,-0.254000,-0.363402,-0.259334
7035,-0.781630,-0.428109,0.021964
7040,0.242285,0.362669,0.270530
7045,0.702234,0.320859,0.009267
7050,-0.227414,-0.332881,-0.310609
7055,-0.674960,-0.338647,-0.084131
7060,0.302662,0.397270,0.267003
7065,0.705597,0.479959,0.075400
7070,-0.214557,-0.428289,-0.248946
7075,-0.689488,-0.407015,-0.010172
7080,0.164805,0.370366,0.347976
7085,0.847544,0.331665,0.026526
7090,-0.268490,-0.406349,-0.348180
7095,-0.765752,-0.408074,0.052400
7100,0.248042,0.473216,0.433523
7105,0.702087,0.418107,-0.020444
7110,-0.309829,-0.348751,-0.259728
7115,-0.737660,-0.485272,0.057846
7120,0.183056,0.328884,0.270990
7125,0.775866,0.459984,0.039866
7130,-0.314713,-0.428328,-0.342546
7135,-0.647614,-0.375472,0.000756
7140,0.201433,0.374893,0.289831
7145,0.789824,0.467018,0.052780
7150,-0.193742,-0.400648,-0.285439
7155,-0.797144,-0.464360,0.048367
7160,0.222578,0.465492,0.289520
7165,0.810768,0.394493,0.028629
7170,-0.223121,-0.442062,-0.279720
7175,-0.730856,-0.462368,-0.014076
7180,0.255830,0.408683,0.250709
7185,0.754410,0.383774,-0.028948
7190,-0.299181,-0.483309,-0.253700
7195,-0.767629,-0.372556,-0.054911
7200,0.197774,0.453332,0.270607
7205,0.797720,0.364849,-0.055368
7210,-0.306202,-0.504294,-0.282826
7215,-0.811558,-0.411375,-0.077034
7220,0.260309,0.401334,0.300751
7225,0.752705,0.407953,0.060485
7230,-0.336889,-0.475965,-0.258515
7235,-0.831216,-0.424428,0.043278
7240,0.239392,0.476240,0.336176
7245,0.803689,0.471782,0.076743
7250,-0.343132,-0.508187,-0.296037
7255,-0.666883,-0.493603,0.044093
7260,0.379873,0.449142,0.298828
7265,0.791247,0.343513,0.065504
7270,-0.226660,-0.423100,-0.248789
7275,-0.801319,-0.474293,-0.049967
7280,0.211891,0.447054,0.255975
7285,0.764500,0.425089,0.002906
7290,-0.154427,-0.377155,-0.351193
7295,-0.750005,-0.453191,0.002046
7300,0.177276,0.513407,0.226215
7305,0.751779,0.382549,0.043287
7310,-0.209082,-0.435750,-0.270432
7315,-0.652605,-0.277722,0.011279
7320,0.221644,0.391913,0.326231
7325,0.725102,0.511965,0.013080
7330,-0.252613,-0.406571,-0.271166
7335,-0.760524,-0.403651,-0.029118
7340,0.190246,0.450163,0.291530
7345,0.820719,0.375527,-0.039054
7350,-0.289816,-0.414325,-0.308932
7355,-0.671769,-0.446826,-0.040429
7360,0.199419,0.370586,0.286378
7365,0.795629,0.402359,-0.031705
7370,-0.247337,-0.407224,-0.319294
7375,-0.782543,-0.403984,0.009278
7380,0.219034,0.539459,0.232633
7385,0.757412,0.415346,0.022332
7390,-0.278418,-0.503743,-0.338930
7395,-0.753020,-0.473409,-0.035903
7400,0.283320,0.424199,0.292118
7405,0.689216,0.427991,-0.040803
7410,-0.217299,-0.508879,-0.300724
7415,-0.768129,-0.420893,0.020538
7420,0.234298,0.475756,0.235238
7425,0.765328,0.453117,-0.005107
7430,-0.283551,-0.499619,-0.385788
7435,-0.754548,-0.382069,0.016885
7440,0.153597,0.414059,0.323488
7445,0.861995,0.486131,0.034606
7450,-0.322624,-0.538964,-0.245272
7455,-0.770497,-0.483160,0.018840
7460,0.157103,0.479278,0.246272
7465,0.746445,0.490267,-0.016071
7470,-0.246593,-0.359034,-0.314916
7475,-0.645758,-0.425432,-0.039635
7480,0.269557,0.444655,0.351245
7485,0.748875,0.388701,-0.065186
7490,-0.258157,-0.414333,-0.371232
7495,-0.786280,-0.427530,-0.027106
7500,0.218318,0.434005,0.201925
7505,0.801962,0.386589,-0.071950
7510,-0.216781,-0.439394,-0.288011
7515,-0.750081,-0.429296,0.062961
7520,0.252239,0.421663,0.269623
7525,0.748863,0.379925,0.004887
7530,-0.296125,-0.429470,-0.300196
7535,-0.859695,-0.470789,0.053715
7540,0.317242,0.434680,0.250699
7545,0.783987,0.361650,-0.006796
7550,-0.219254,-0.445205,-0.256580
7555,-0.648303,-0.406257,0.070660
7560,0.214335,0.403961,0.336309
7565,0.831024,0.436980,-0.031140
7570,-0.205303,-0.521372,-0.307994
7575,-0.833130,-0.421044,-0.022306
7580,0.175656,0.376604,0.285811
7585,0.747929,0.457349,-0.045474
7590,-0.162416,-0.458703,-0.268833
7595,-0.737784,-0.392789,0.069140
7600,0.270752,0.433828,0.262891
7605,0.715707,0.447457,-0.080618
7610,-0.213460,-0.447257,-0.196547
7615,-0.842916,-0.404606,-0.086655
7620,0.192534,0.424059,0.340860
7625,0.720462,0.439126,0.051016
7630,-0.200068,-0.458415,-0.284363
7635,-0.783014,-0.352395,-0.030105
7640,0.221681,0.424604,0.299473
7645,0.792755,0.414788,-0.001282
7650,-0.281442,-0.441581,-0.436182
7655,-0.755315,-0.478157,-0.042662
7660,0.251979,0.402362,0.274910
7665,0.688888,0.418418,0.074677
7670,-0.141590,-0.474563,-0.318543
7675,-0.795075,-0.412721,0.019593
7680,0.292834,0.503792,0.265062
7685,0.772696,0.386694,0.051816
7690,-0.211328,-0.312688,-0.322024
7695,-0.827641,-0.449544,-0.043936
7700,0.169911,0.415437,0.377317
7705,0.760882,0.386009,0.043320
7710,-0.297847,-0.400114,-0.378490
7715,-0.706847,-0.338624,-0.055319
7720,0.186946,0.413542,0.319864
7725,0.729921,0.370141,-0.013386
7730,-0.253049,-0.460888,-0.319091
7735,-0.774840,-0.364864,0.000349
7740,0.199589,0.376668,0.327328
7745,0.765561,0.438467,0.013081
7750,-0.293971,-0.420044,-0.220829
7755,-0.798608,-0.449412,-0.030941
7760,0.224287,0.482108,0.414752
7765,0.763182,0.397994,0.024984
7770,-0.212116,-0.417772,-0.258175
7775,-0.751058,-0.393855,0.076187
7780,0.135308,0.455546,0.318981
7785,0.760826,0.456289,-0.042268
7790,-0.271821,-0.395116,-0.253907
7795,-0.642811,-0.403635,-0.004063
7800,0.215608,0.369859,0.305351
7805,0.744314,0.451555,-0.051035
7810,-0.267426,-0.480682,-0.272639
7815,-0.751003,-0.425913,0.004533
7820,0.220042,0.446763,0.305521
7825,0.844785,0.384648,-0.027981
7830,-0.167881,-0.401400,-0.239093
7835,-0.786256,-0.442912,-0.032574
7840,0.185867,0.466076,0.385100
7845,0.742486,0.330588,-0.034921
7850,-0.276187,-0.463700,-0.220040
7855,-0.738588,-0.444195,0.011354
7860,0.322575,0.493330,0.356605
7865,0.727048,0.449379,-0.057744
7870,-0.286118,-0.410480,-0.322071
7875,-0.683812,-0.425956,0.022761
7880,0.185865,0.437971,0.327745
7885,0.760479,0.384834,-0.070135
7890,-0.207923,-0.469222,-0.320409
7895,-0.724053,-0.422546,0.015372
7900,0.218857,0.470066,0.349020
7905,0.746290,0.380917,0.066180
7910,-0.235222,-0.351705,-0.321018
7915,-0.750371,-0.461012,0.010726
7920,0.301891,0.467059,0.329772
7925,0.767015,0.418322,0.009884
7930,-0.254327,-0.491490,-0.332689
7935,-0.743796,-0.448288,0.062433
7940,0.234025,0.484861,0.343790
7945,0.835661,0.358344,-0.007393
7950,-0.266225,-0.421457,-0.262992
7955,-0.700492,-0.423780,-0.049290
7960,0.283875,0.343511,0.310339
7965,0.856443,0.354350,-0.012023
7970,-0.220009,-0.447555,-0.347146
7975,-0.777395,-0.359497,0.061608
7980,0.266641,0.384585,0.404050
7985,0.884791,0.513656,-0.045448
7990,-0.299713,-0.438659,-0.337156
7995,-0.753414,-0.396304,-0.005186
8000,0.294172,0.368149,0.220092
8005,0.688632,0.384699,-0.081860
8010,-0.271266,-0.457044,-0.340073
8015,-0.773910,-0.417676,0.005127
8020,0.242895,0.454560,0.280141
8025,0.841952,0.326426,-0.009404
8030,-0.340927,-0.497531,-0.256653
8035,-0.744135,-0.406148,-0.055966
8040,0.219538,0.458058,0.233483
8045,0.767400,0.409202,0.002697
8050,-0.255913,-0.432983,-0.287651
8055,-0.778386,-0.428329,0.027052
8060,0.212988,0.487353,0.299888
8065,0.706245,0.435905,0.060417
8070,-0.346292,-0.426292,-0.260875
8075,-0.755312,-0.471889,0.085718
8080,0.246069,0.413402,0.230009
8085,0.787942,0.387023,0.033503
8090,-0.252725,-0.400388,-0.374057
8095,-0.742722,-0.492630,0.058089
8100,0.213617,0.365187,0.241243
8105,0.733776,0.481861,-0.042364
8110,-0.194456,-0.438746,-0.218596
8115,-0.768803,-0.474804,0.030050
8120,0.297588,0.470083,0.407894
8125,0.739276,0.436203,-0.005310
8130,-0.227240,-0.436117,-0.285479
8135,-0.779528,-0.480102,-0.043490
8140,0.239457,0.589934,0.346991
8145,0.719143,0.484859,0.049533
8150,-0.249473,-0.462408,-0.303654
8155,-0.737037,-0.504938,0.038379
8160,0.256752,0.482535,0.172686
8165,0.712927,0.349005,0.011628
8170,-0.189325,-0.466410,-0.312218
8175,-0.750785,-0.222475,-0.043640
8180,0.236702,0.403380,0.288322
8185,0.803206,0.336454,0.114484
8190,-0.279654,-0.534848,-0.272908
8195,-0.786648,-0.322281,0.051456
8200,0.198261,0.359827,0.282191
8205,0.688583,0.487487,0.002790
8210,-0.272209,-0.452355,-0.379461
8215,-0.760481,-0.411191,0.127779
8220,0.173408,0.495561,0.296535
8225,0.710920,0.406146,0.015515
8230,-0.154051,-0.395326,-0.272154
8235,-0.809051,-0.473281,-0.062630
8240,0.250117,0.485636,0.225227
8245,0.654010,0.435617,-0.005710
8250,-0.259584,-0.475958,-0.257765
8255,-0.791242,-0.482147,0.022066
8260,0.228821,0.445007,0.166299
8265,0.796781,0.433196,-0.008963
8270,-0.269951,-0.494313,-0.242837
8275,-0.732367,-0.373567,0.033800
8280,0.193621,0.426559,0.233611
8285,0.834293,0.386060,-0.060752
8290,-0.250827,-0.402486,-0.273404
8295,-0.848190,-0.459991,0.040548
8300,0.273714,0.381214,0.259991
8305,0.784635,0.412379,0.092041
8310,-0.196948,-0.489322,-0.313525
8315,-0.718523,-0.350039,0.053800
8320,0.246705,0.395062,0.236960
8325,0.749154,0.526141,0.038128
8330,-0.245795,-0.463620,-0.301461
8335,-0.760714,-0.395327,0.052842
8340,0.131872,0.387160,0.279575
8345,0.765585,0.453803,-0.034407
8350,-0.164932,-0.384694,-0.321740
8355,-0.772507,-0.404380,-0.055493
8360,0.207149,0.418310,0.302921
8365,0.772119,0.458152,-0.093501
8370,-0.205882,-0.427842,-0.312539
8375,-0.736584,-0.465367,-0.042100
8380,0.336836,0.376319,0.262385
8385,0.676720,0.347104,0.048707
8390,-0.226391,-0.381943,-0.304698
8395,-0.814535,-0.390476,-0.125195
8400,0.202709,0.477307,0.328126
8405,0.802874,0.375297,0.025755
8410,-0.192941,-0.399274,-0.254698
8415,-0.773817,-0.424684,-0.004048
8420,0.177602,0.459814,0.237012
8425,0.752538,0.460794,-0.049241
8430,-0.346075,-0.381647,-0.369217
8435,-0.717474,-0.475787,0.080621
8440,0.302685,0.478950,0.335914
8445,0.685852,0.406955,0.066265
8450,-0.274483,-0.413563,-0.250035
8455,-0.740587,-0.432456,0.102369
8460,0.226465,0.404728,0.297434
8465,0.690131,0.406427,-0.017931
8470,-0.275046,-0.430367,-0.304243
8475,-0.771769,-0.425907,-0.035669
8480,0.196686,0.384863,0.275373
8485,0.819973,0.355745,0.067225
8490,-0.233322,-0.476820,-0.374690
8495,-0.733652,-0.427029,-0.003999
8500,0.261074,0.451984,0.321918
8505,0.762678,0.372884,0.005041
8510,-0.273767,-0.434865,-0.245856
8515,-0.736956,-0.519916,0.056600
8520,0.184056,0.465564,0.386258
8525,0.740188,0.436768,0.018420
8530,-0.229274,-0.442966,-0.284221
8535,-0.747521,-0.430264,0.022631
8540,0.183660,0.580469,0.312246
8545,0.858928,0.414650,-0.030204
8550,-0.230919,-0.335912,-0.321080
8555,-0.817935,-0.414138,0.058340
8560,0.314269,0.368840,0.268038
8565,0.762594,0.391101,0.075534
8570,-0.299566,-0.477514,-0.295308
8575,-0.746563,-0.463940,0.054091
8580,0.346080,0.425740,0.302275
8585,0.820737,0.393190,0.032547
8590,-0.235891,-0.438614,-0.283314
8595,-0.777732,-0.335952,0.013791
8600,0.226533,0.445819,0.333085
8605,0.850579,0.384502,-0.004578
8610,-0.310224,-0.455706,-0.351003
8615,-0.852746,-0.414843,-0.119159
8620,0.259670,0.438643,0.340572
8625,0.785258,0.427208,-0.040911
8630,-0.220683,-0.431726,-0.365362
8635,-0.678996,-0.329150,0.041684
8640,0.236786,0.432871,0.273589
8645,0.756373,0.494817,0.027510
8650,-0.274520,-0.367515,-0.282321
8655,-0.796831,-0.445211,-0.021198
8660,0.227437,0.391178,0.264633
8665,0.761516,0.403185,0.065218
8670,-0.182801,-0.469179,-0.298019
8675,-0.762125,-0.475184,-0.027204
8680,0.199150,0.501905,0.430217
8685,0.823889,0.421124,0.043656
8690,-0.276950,-0.511839,-0.259066
8695,-0.784089,-0.400253,0.022511
8700,0.258087,0.475695,0.243382
8705,0.710226,0.419257,0.002221
8710,-0.183514,-0.355577,-0.305581
8715,-0.672118,-0.526295,-0.070778
8720,0.245694,0.418366,0.335632
8725,0.744794,0.401759,-0.044047
8730,-0.172154,-0.423261,-0.380625
8735,-0.762204,-0.402998,0.151843
8740,0.207231,0.494753,0.316424
8745,0.748855,0.464770,-0.078790
8750,-0.311827,-0.475998,-0.213526
8755,-0.801620,-0.367176,0.040055
8760,0.286107,0.476760,0.237890
8765,0.802015,0.354613,-0.047012
8770,-0.256217,-0.432543,-0.269156
8775,-0.755995,-0.435614,0.053128
8780,0.215707,0.395670,0.303368
8785,0.789410,0.416763,0.010694
8790,-0.172746,-0.422332,-0.341160
8795,-0.770230,-0.401366,-0.005873
8800,0.205305,0.393485,0.339126
8805,0.758978,0.360013,0.069802
8810,-0.150189,-0.426536,-0.362774
8815,-0.798831,-0.310971,-0.055035
8820,0.291092,0.460219,0.324237
8825,0.814562,0.481284,-0.093837
8830,-0.250648,-0.397081,-0.188919
8835,-0.734367,-0.417944,-0.025832
8840,0.230140,0.505686,0.272517
8845,0.704879,0.389930,0.016018
8850,-0.260714,-0.422920,-0.427898
8855,-0.754502,-0.415179,0.090957
8860,0.280578,0.399664,0.333033
8865,0.843263,0.400232,0.039342
8870,-0.174869,-0.483821,-0.250588
8875,-0.721925,-0.447707,-0.036257
8880,0.274821,0.520107,0.276392
8885,0.760721,0.450923,-0.100792
8890,-0.241965,-0.445711,-0.315054
8895,-0.704140,-0.407851,0.038489
8900,0.220281,0.454566,0.298520
8905,0.749079,0.383690,0.028279
8910,-0.264807,-0.344888,-0.254078
8915,-0.778143,-0.392141,0.052983
8920,0.228586,0.412754,0.264173
8925,0.771964,0.311001,-0.012342
8930,-0.256446,-0.418184,-0.303202
8935,-0.821575,-0.410251,0.035008
8940,0.247326,0.375070,0.409736
8945,0.771167,0.398045,-0.014620
8950,-0.227636,-0.452307,-0.277923
8955,-0.721656,-0.417393,0.030563
8960,0.240462,0.390316,0.252347
8965,0.734532,0.525023,0.003493
8970,-0.224261,-0.418151,-0.277930
8975,-0.755573,-0.378932,0.034580
8980,0.220196,0.454596,0.333540
8985,0.794210,0.479914,0.043262
8990,-0.263473,-0.465636,-0.280122
8995,-0.741073,-0.440651,-0.042633
9000,0.209195,0.438375,0.323632
9005,0.736185,0.428484,0.060454
9010,-0.286165,-0.435799,-0.296314
9015,-0.825036,-0.434389,0.015256
9020,0.222559,0.412159,0.297052
9025,0.774563,0.356198,-0.023682
9030,-0.200683,-0.513572,-0.250165
9035,-0.623602,-0.326873,-0.079917
9040,0.210720,0.492090,0.326278
9045,0.791156,0.384588,-0.047470
9050,-0.202586,-0.426919,-0.299961
9055,-0.733852,-0.443480,-0.007308
9060,0.170645,0.444455,0.371502
9065,0.677475,0.400245,0.004947
9070,-0.172022,-0.386007,-0.363912
9075,-0.807671,-0.431643,-0.011354
9080,0.200311,0.418869,0.250261
9085,0.835626,0.513809,0.075395
9090,-0.244555,-0.444262,-0.403164
9095,-0.729354,-0.383502,0.023614
9100,0.164542,0.421523,0.285201
9105,0.817105,0.438180,0.003988
9110,-0.273459,-0.478475,-0.253900
9115,-0.790140,-0.320930,-0.064602
9120,0.259464,0.399658,0.238600
9125,0.634174,0.334212,0.025267
9130,-0.266428,-0.399709,-0.247980
9135,-0.733513,-0.476570,0.030425
9140,0.209177,0.468451,0.257561
9145,0.704591,0.445791,0.029524
9150,-0.242523,-0.474933,-0.298988
9155,-0.786334,-0.405615,-0.027278
9160,0.214167,0.434069,0.294835
9165,0.747957,0.518649,0.050911
9170,-0.260665,-0.311072,-0.396988
9175,-0.693353,-0.404673,-0.024669
9180,0.170739,0.310223,0.295823
9185,0.750374,0.384474,-0.018273
9190,-0.158927,-0.448348,-0.286562
9195,-0.855952,-0.383872,0.101457
9200,0.239169,0.477588,0.270965
9205,0.706207,0.417006,-0.082765
9210,-0.212194,-0.412777,-0.324063
9215,-0.849632,-0.417304,0.026644
9220,0.178125,0.405444,0.345681
9225,0.674226,0.413060,-0.061218
9230,-0.239087,-0.393375,-0.272623
9235,-0.794327,-0.423096,0.073424
9240,0.213453,0.427324,0.323184
9245,0.774510,0.369319,0.062277
9250,-0.192670,-0.433986,-0.299527
9255,-0.745193,-0.393317,0.112714
9260,0.143091,0.339500,0.307654
9265,0.763453,0.446892,-0.132074
9270,-0.231301,-0.491641,-0.303090
9275,-0.774366,-0.458930,0.035007
9280,0.202740,0.465404,0.363912
9285,0.860504,0.362651,-0.017511
9290,-0.205694,-0.470620,-0.279855
9295,-0.799504,-0.381154,-0.090947
9300,0.155784,0.539889,0.337387
9305,0.684803,0.346018,0.029400
9310,-0.229515,-0.433568,-0.275916
9315,-0.775117,-0.338906,0.075693
9320,0.225246,0.496422,0.292387
9325,0.821491,0.356951,-0.065949
9330,-0.197414,-0.385004,-0.260907
9335,-0.783256,-0.371220,0.055331
9340,0.200757,0.468380,0.306077
9345,0.745204,0.381188,-0.089965
9350,-0.221982,-0.299991,-0.237514
9355,-0.763254,-0.469038,-0.046317
9360,0.235321,0.449413,0.358768
9365,0.743722,0.591829,0.016077
9370,-0.262016,-0.393055,-0.285435
9375,-0.840759,-0.347811,0.023765
9380,0.173304,0.441362,0.355629
9385,0.694991,0.414170,0.033336
9390,-0.211205,-0.386398,-0.207928
9395,-0.876545,-0.463477,-0.001019
9400,0.193495,0.382337,0.253513
9405,0.766617,0.400851,-0.024860
9410,-0.192015,-0.352834,-0.282953
9415,-0.810184,-0.475984,0.040300
9420,0.237022,0.534558,0.214455
9425,0.784311,0.433262,0.024956
9430,-0.249711,-0.466189,-0.292418
9435,-0.805081,-0.384744,-0.008130
9440,0.195633,0.396370,0.291311
9445,0.692333,0.495666,-0.083095
9450,-0.169979,-0.523089,-0.368709
9455,-0.761257,-0.457103,0.016331
9460,0.239809,0.460015,0.239868
9465,0.827354,0.473840,-0.069785
9470,-0.280623,-0.360221,-0.353468
9475,-0.746580,-0.415836,-0.037168
9480,0.336162,0.345446,0.293825
9485,0.735413,0.364025,0.003736
9490,-0.240392,-0.538025,-0.265346
9495,-0.799038,-0.431539,0.002183
9500,0.159272,0.412650,0.334219
9505,0.796448,0.388455,0.172765
9510,-0.211779,-0.393938,-0.243763
9515,-0.713656,-0.319020,0.041769
9520,0.206622,0.440983,0.235815
9525,0.779934,0.486991,-0.019718
9530,-0.300137,-0.404550,-0.360331
9535,-0.738907,-0.417256,0.010648
9540,0.368382,0.470251,0.351509
9545,0.718899,0.407699,-0.021380
9550,-0.282906,-0.474295,-0.342248
9555,-0.721306,-0.351015,-0.014051
9560,0.303889,0.457613,0.399915
9565,0.770894,0.361800,-0.078237
9570,-0.255715,-0.508549,-0.345476
9575,-0.810964,-0.424301,0.018103
9580,0.202668,0.458004,0.221072
9585,0.742730,0.462473,-0.010613
9590,-0.190962,-0.473862,-0.270627
9595,-0.792700,-0.408581,-0.057601
9600,0.241265,0.389362,0.339819
9605,0.825029,0.423190,-0.030739
9610,-0.195077,-0.402563,-0.333948
9615,-0.698039,-0.415669,0.013445
9620,0.234160,0.369270,0.359214
9625,0.739161,0.380235,-0.003997
9630,-0.200092,-0.468499,-0.207955
9635,-0.778943,-0.408763,0.069169
9640,0.240727,0.450784,0.317288
9645,0.834258,0.439111,0.071128
9650,-0.246742,-0.293655,-0.355353
9655,-0.752830,-0.399069,-0.064407
9660,0.181805,0.372320,0.240988
9665,0.767462,0.416423,0.101043
9670,-0.341811,-0.387370,-0.391278
9675,-0.792836,-0.348292,0.100563
9680,0.218854,0.554043,0.261840
9685,0.683160,0.311624,0.036305
9690,-0.221086,-0.357197,-0.247033
9695,-0.785583,-0.387984,0.001991
9700,0.226024,0.336991,0.281543
9705,0.779096,0.372802,-0.024623
9710,-0.193515,-0.497289,-0.339619
9715,-0.664894,-0.410055,-0.076944
9720,0.292235,0.478691,0.300632
9725,0.701310,0.367240,-0.071775
9730,-0.187061,-0.309425,-0.293731
9735,-0.894401,-0.367136,0.048195
9740,0.327149,0.533372,0.330979
9745,0.719250,0.454520,0.035002
9750,-0.242078,-0.438019,-0.212138
9755,-0.746499,-0.384452,0.060690
9760,0.145167,0.391166,0.334433
9765,0.821671,0.492306,-0.021919
9770,-0.218611,-0.462635,-0.336289
9775,-0.759140,-0.371657,0.035583
9780,0.221846,0.368040,0.231920
9785,0.823521,0.385952,0.064539
9790,-0.198685,-0.360540,-0.281746
9795,-0.778216,-0.383937,-0.004682
9800,0.208693,0.445271,0.336843
9805,0.898436,0.407799,-0.005493
9810,-0.296801,-0.420965,-0.356178
9815,-0.706959,-0.484546,0.019568
9820,0.248612,0.458723,0.297100
9825,0.681730,0.378686,0.056024
9830,-0.442437,-0.368805,-0.311386
9835,-0.690790,-0.353088,0.128413
9840,0.233252,0.361624,0.319618
9845,0.847874,0.395676,0.062211
9850,-0.294836,-0.454680,-0.319397
9855,-0.768397,-0.379263,0.041855
9860,0.245243,0.385074,0.327082
9865,0.770395,0.451295,-0.056085
9870,-0.291398,-0.379479,-0.293408
9875,-0.736537,-0.452762,0.032679
9880,0.237407,0.463664,0.344549
9885,0.772300,0.415055,0.020918
9890,-0.214208,-0.399357,-0.350412
9895,-0.887361,-0.377612,-0.033049
9900,0.158259,0.427910,0.329294
9905,0.751934,0.406805,0.026293
9910,-0.108484,-0.435325,-0.333711
9915,-0.758160,-0.407258,0.017654
9920,0.247903,0.458540,0.271885
9925,0.795707,0.365771,-0.043848
9930,-0.136026,-0.465159,-0.312339
9935,-0.787641,-0.393639,0.043759
9940,0.300801,0.465530,0.271099
9945,0.825931,0.428013,-0.014827
9950,-0.122443,-0.281682,-0.308751
9955,-0.732175,-0.421677,-0.002507
9960,0.233941,0.441080,0.289669
9965,0.819640,0.436388,0.017090
9970,-0.252764,-0.402498,-0.382394
9975,-0.790407,-0.338355,-0.029680
9980,0.288883,0.476648,0.239470
9985,0.760620,0.486672,-0.032047
9990,-0.169707,-0.444611,-0.191901
9995,-0.810734,-0.380743,-0.002267
10000,0.240489,0.391519,0.267238
10005,0.794480,0.393455,0.050333
10010,-0.317332,-0.416475,-0.328470
10015,-0.808173,-0.422694,0.041407
10020,0.232176,0.488780,0.269778
10025,0.745937,0.407963,-0.068163
10030,-0.205797,-0.439621,-0.314498
10035,-0.783190,-0.341135,0.054444
10040,0.210733,0.489431,0.279412
10045,0.722284,0.359804,0.036118
10050,-0.208494,-0.453776,-0.364931
10055,-0.733957,-0.404740,0.017646
10060,0.218931,0.488787,0.295682
10065,0.713229,0.418602,0.050924
10070,-0.304014,-0.458171,-0.246808
10075,-0.780289,-0.264704,0.017824
10080,0.286550,0.485185,0.267219
10085,0.780676,0.419573,-0.019502
10090,-0.192737,-0.430562,-0.273344
10095,-0.720891,-0.432366,0.047108
10100,0.233651,0.357619,0.419269
10105,0.755419,0.461650,0.031077
10110,-0.194421,-0.432762,-0.230089
10115,-0.665017,-0.445893,-0.060684
10120,0.276836,0.405184,0.344268
10125,0.676134,0.406521,0.023709
10130,-0.222621,-0.418017,-0.430825
10135,-0.708509,-0.406879,0.019449
10140,0.194521,0.489584,0.280880
10145,0.749793,0.453052,-0.091518
10150,-0.313843,-0.459863,-0.248322
10155,-0.723190,-0.417037,0.054742
10160,0.259138,0.386816,0.300956
10165,0.739131,0.455135,0.102050
10170,-0.299643,-0.421828,-0.267578
10175,-0.794104,-0.442549,-0.005368
10180,0.219366,0.521638,0.188569
10185,0.810962,0.365415,-0.044507
10190,-0.122466,-0.462873,-0.307782
10195,-0.862679,-0.375590,-0.028522
10200,0.240276,0.464509,0.328849
10205,0.782719,0.423134,0.093342
10210,-0.144370,-0.495848,-0.380752
10215,-0.778860,-0.426269,0.063178
10220,0.270606,0.382218,0.238683
10225,0.683151,0.473646,-0.007936
10230,-0.172679,-0.431473,-0.297047
10235,-0.776152,-0.401145,-0.016483
10240,0.337034,0.368057,0.324319
10245,0.764768,0.428398,-0.055891
10250,-0.215982,-0.442865,-0.284991
10255,-0.731015,-0.314943,0.017885
10260,0.242714,0.389264,0.245242
10265,0.706495,0.380288,-0.009635
10270,-0.159991,-0.415639,-0.294096
10275,-0.788654,-0.397761,-0.028014
10280,0.194334,0.452420,0.224316
10285,0.680566,0.395381,0.009644
10290,-0.301817,-0.452770,-0.295179
10295,-0.810777,-0.320436,-0.069060
10300,0.322104,0.421420,0.330562
10305,0.741300,0.497497,-0.019097
10310,-0.154018,-0.447617,-0.232460
10315,-0.751825,-0.392245,-0.042550
10320,0.291937,0.472394,0.302221
10325,0.825648,0.452150,0.045060
10330,-0.210180,-0.509047,-0.213945
10335,-0.770221,-0.500895,-0.031015
10340,0.204169,0.373174,0.337084
10345,0.704368,0.460042,0.011560
10350,-0.135557,-0.519135,-0.400095
10355,-0.794781,-0.402006,-0.002706
10360,0.309766,0.441306,0.346441
10365,0.793676,0.376129,-0.004365
10370,-0.205692,-0.439556,-0.199492
10375,-0.862749,-0.449543,0.100477
10380,0.244041,0.452246,0.295724
10385,0.758958,0.410377,-0.038028
10390,-0.169084,-0.431740,-0.285373
10395,-0.659824,-0.419720,-0.026093
10400,0.195384,0.351583,0.235289
10405,0.739856,0.472648,-0.001612
10410,-0.205872,-0.491457,-0.253446
10415,-0.687095,-0.437715,0.022854
10420,0.342047,0.372806,0.280325
10425,0.773344,0.441961,-0.023289
10430,-0.193187,-0.500242,-0.372254
10435,-0.814808,-0.427074,0.027175
10440,0.162011,0.481685,0.348408
10445,0.705749,0.392950,-0.020318
10450,-0.192321,-0.497812,-0.317841
10455,-0.724550,-0.502877,0.098737
10460,0.233315,0.399909,0.302955
10465,0.804169,0.384431,0.045934
10470,-0.178496,-0.451374,-0.319605
10475,-0.711230,-0.438970,-0.062088
10480,0.293994,0.444868,0.287665
10485,0.784701,0.368419,0.029398
10490,-0.211368,-0.434922,-0.320076
10495,-0.821362,-0.377261,-0.023735
10500,0.146298,0.416170,0.334540
10505,0.799378,0.387452,0.008380
10510,-0.307257,-0.410773,-0.291732
10515,-0.768968,-0.329414,0.038483
10520,0.210380,0.431511,0.311541
10525,0.821898,0.404458,0.008108
10530,-0.205827,-0.438726,-0.255989
10535,-0.696600,-0.329282,0.066123
10540,0.253224,0.510422,0.364319
10545,0.830145,0.448622,-0.024718
10550,-0.251891,-0.445846,-0.231995
10555,-0.724020,-0.448021,0.069022
10560,0.278895,0.423488,0.239251
10565,0.731709,0.508512,0.042083
10570,-0.292243,-0.379223,-0.328109
10575,-0.789302,-0.388231,-0.032162
10580,0.300132,0.402790,0.373277
10585,0.843784,0.451481,0.011040
10590,-0.205121,-0.391920,-0.277771
10595,-0.825131,-0.506896,-0.091743
10600,0.248959,0.455380,0.254156
10605,0.848408,0.276223,-0.101395
10610,-0.260110,-0.449685,-0.365652
10615,-0.758160,-0.298344,-0.149943
10620,0.310600,0.422880,0.367546
10625,0.729016,0.358547,0.064906
10630,-0.236111,-0.476350,-0.255462
10635,-0.769412,-0.337891,0.066956
10640,0.335262,0.355922,0.242706
10645,0.721919,0.421170,-0.019480
10650,-0.229074,-0.408216,-0.338000
10655,-0.790121,-0.425959,-0.036928
10660,0.230875,0.441777,0.305963
10665,0.773944,0.406034,-0.085510
10670,-0.262367,-0.431070,-0.320869
10675,-0.780811,-0.371941,-0.035573
10680,0.213967,0.471631,0.361449
10685,0.813525,0.403545,-0.055369
10690,-0.196214,-0.390770,-0.204247
10695,-0.795636,-0.364493,0.087042
10700,0.185172,0.459767,0.288523
10705,0.857831,0.526509,0.115203
10710,-0.236856,-0.418137,-0.226554
10715,-0.850986,-0.428241,-0.007962
10720,0.242850,0.386071,0.341268
10725,0.692535,0.420208,0.002393
10730,-0.209939,-0.491901,-0.332454
10735,-0.738786,-0.440998,-0.051270
10740,0.163902,0.401290,0.266480
10745,0.652742,0.313107,0.015157
10750,-0.216598,-0.415734,-0.286477
10755,-0.832040,-0.385900,-0.071403
10760,0.230279,0.392188,0.239156
10765,0.804612,0.376670,-0.038099
10770,-0.224061,-0.478759,-0.306653
10775,-0.777371,-0.368904,-0.055349
10780,0.229093,0.425601,0.290726
10785,0.732504,0.465964,-0.040823
10790,-0.156330,-0.385046,-0.363095
10795,-0.851158,-0.492208,0.017027
10800,0.288476,0.411604,0.277766
10805,0.625250,0.448835,0.008643
10810,-0.166430,-0.354669,-0.341757
10815,-0.849680,-0.452741,0.069971
10820,0.225522,0.449876,0.384133
10825,0.748022,0.476651,0.004086
10830,-0.184535,-0.456424,-0.276462
10835,-0.702591,-0.342462,-0.044135
10840,0.220561,0.425930,0.325307
10845,0.779967,0.413336,-0.041528
10850,-0.161214,-0.371625,-0.271925
10855,-0.732195,-0.363863,-0.014427
10860,0.169837,0.423221,0.370739
10865,0.745052,0.478785,-0.065989
10870,-0.167572,-0.409525,-0.298103
10875,-0.748244,-0.411710,0.028868
10880,0.265939,0.358629,0.235568
10885,0.777858,0.399155,-0.010263
10890,-0.286651,-0.467980,-0.268191
10895,-0.746567,-0.447361,0.018739
10900,0.227737,0.462730,0.302001
10905,0.750084,0.401152,0.102163
10910,-0.234722,-0.441425,-0.223957
10915,-0.737582,-0.342814,0.019643
10920,0.266520,0.431788,0.282525
10925,0.654482,0.439701,-0.008969
10930,-0.256497,-0.528035,-0.304554
10935,-0.743606,-0.436286,0.021344
10940,0.231559,0.449911,0.309827
10945,0.740050,0.447135,0.039716
10950,-0.182547,-0.392352,-0.315350
10955,-0.679316,-0.431622,-0.061076
10960,0.218037,0.454464,0.352610
10965,0.782889,0.435850,-0.017229
10970,-0.195131,-0.407086,-0.308973
10975,-0.814610,-0.559313,-0.036685
10980,0.237833,0.332558,0.273674
10985,0.741370,0.393150,0.076602
10990,-0.223159,-0.465020,-0.286425
10995,-0.790015,-0.446107,-0.018830
11000,0.211859,0.417134,0.282386
11005,0.838954,0.493350,-0.013190
11010,-0.251927,-0.338081,-0.250977
11015,-0.865589,-0.401967,-0.041827
11020,0.206186,0.330666,0.290026
11025,0.747221,0.436876,0.075795
11030,-0.212193,-0.385000,-0.210777
11035,-0.775821,-0.323211,0.000308
11040,0.298275,0.433622,0.298646
11045,0.761782,0.490885,0.006815
11050,-0.288185,-0.476591,-0.302032
11055,-0.780614,-0.346752,0.033117
11060,0.244539,0.486848,0.322625
11065,0.840010,0.418998,0.090112
11070,-0.266852,-0.416576,-0.373193
11075,-0.783827,-0.353139,-0.022293
11080,0.273473,0.353420,0.346368
11085,0.761442,0.483425,-0.002137
11090,-0.230443,-0.382055,-0.396710
11095,-0.840031,-0.364530,0.041209
11100,0.395341,0.455679,0.251340
11105,0.822904,0.335537,0.019365
11110,-0.267782,-0.485165,-0.289417
11115,-0.818976,-0.388854,-0.017410
11120,0.204169,0.491786,0.320045
11125,0.747406,0.377362,0.034504
11130,-0.277411,-0.485467,-0.301846
11135,-0.763258,-0.468119,0.009999
11140,0.261116,0.495475,0.329799
11145,0.775311,0.372335,-0.018225
11150,-0.172070,-0.379943,-0.256207
11155,-0.706384,-0.427867,-0.056732
11160,0.230592,0.382500,0.326133
11165,0.812870,0.502546,-0.055732
11170,-0.220848,-0.439923,-0.353311
11175,-0.788897,-0.489841,0.105990
11180,0.303036,0.536654,0.255091
11185,0.808407,0.441724,-0.055472
11190,-0.205247,-0.502901,-0.420895
11195,-0.773228,-0.397632,0.013875
11200,0.190648,0.303734,0.293295
11205,0.786995,0.487636,-0.088076
11210,-0.156111,-0.478628,-0.239316
11215,-0.756513,-0.402677,-0.008852
11220,0.245862,0.395026,0.340705
11225,0.783638,0.382681,0.054606
11230,-0.299195,-0.438404,-0.225716
11235,-0.775312,-0.372486,-0.011910
11240,0.179399,0.462308,0.314421
11245,0.711726,0.468830,-0.114001
11250,-0.284485,-0.258508,-0.375062
11255,-0.751292,-0.350048,0.039271
11260,0.183535,0.386273,0.350112
11265,0.741200,0.454037,-0.007723
11270,-0.289523,-0.327636,-0.246548
11275,-0.755284,-0.490036,0.026606
11280,0.198591,0.339244,0.258261
11285,0.686593,0.332324,0.062492
11290,-0.275530,-0.490492,-0.352325
11295,-0.715664,-0.448088,0.036124
11300,0.233820,0.463271,0.359554
11305,0.725224,0.516847,-0.030803
11310,-0.198805,-0.386169,-0.307990
11315,-0.885333,-0.460513,-0.047575
11320,0.302715,0.393418,0.255366
11325,0.783440,0.432771,0.082573
11330,-0.233592,-0.511482,-0.309849
11335,-0.720479,-0.428830,-0.023573
11340,0.259152,0.382410,0.318702
11345,0.844496,0.373474,0.012541
11350,-0.172566,-0.422101,-0.280357
11355,-0.783202,-0.415194,0.051178
11360,0.219053,0.410188,0.343266
11365,0.855306,0.410699,-0.012382
11370,-0.220167,-0.421860,-0.259151
11375,-0.755109,-0.406340,0.033544
11380,0.217437,0.391767,0.306791
11385,0.749672,0.432778,0.023100
11390,-0.229459,-0.431797,-0.289123
11395,-0.793880,-0.425422,0.095422
11400,0.348588,0.397928,0.290572
11405,0.696905,0.431713,0.014560
11410,-0.192722,-0.419655,-0.272655
11415,-0.714634,-0.452947,0.049620
11420,0.265113,0.354015,0.338128
11425,0.767488,0.459947,0.053302
11430,-0.269159,-0.446659,-0.300385
11435,-0.816446,-0.443501,-0.004274
11440,0.131792,0.434575,0.353961
11445,0.739700,0.363530,-0.117663
11450,-0.161104,-0.393021,-0.338574
11455,-0.819602,-0.457870,0.001602
11460,0.303833,0.465047,0.255669
11465,0.770203,0.422132,-0.002393
11470,-0.207404,-0.490540,-0.375810
11475,-0.808025,-0.395570,-0.021098
11480,0.220174,0.451343,0.322123
11485,0.830321,0.455820,0.026397
11490,-0.320084,-0.401148,-0.393144
11495,-0.782546,-0.365194,0.051382
11500,0.213272,0.403328,0.194069
11505,0.778901,0.396640,0.049269
11510,-0.206555,-0.479172,-0.294029
11515,-0.714611,-0.410838,-0.050487
11520,0.254772,0.362428,0.310534
11525,0.741147,0.422937,-0.047830
11530,-0.303838,-0.414837,-0.360535
11535,-0.680008,-0.471606,0.055365
11540,0.243358,0.411336,0.274815
11545,0.810850,0.381965,-0.060821
11550,-0.223050,-0.526569,-0.298404
11555,-0.720010,-0.401422,0.065287
11560,0.274033,0.467478,0.307596
11565,0.704535,0.438848,0.025369
11570,-0.181757,-0.448327,-0.273493
11575,-0.766488,-0.443641,-0.018812
11580,0.308996,0.405428,0.321332
11585,0.751985,0.489256,-0.055021
11590,-0.143935,-0.384257,-0.225270
11595,-0.743724,-0.475659,-0.007782
11600,0.176900,0.385426,0.307119
11605,0.902641,0.437546,0.067521
11610,-0.288262,-0.467440,-0.349332
11615,-0.767929,-0.389161,0.051824
11620,0.214770,0.485489,0.299543
11625,0.736306,0.312856,-0.119567
11630,-0.208193,-0.431066,-0.236878
11635,-0.701445,-0.451652,0.030256
11640,0.283782,0.458854,0.286416
11645,0.800472,0.434528,-0.060166
11650,-0.199736,-0.447667,-0.298024
11655,-0.800949,-0.439663,-0.005899
11660,0.230354,0.423672,0.258376
11665,0.709999,0.411141,-0.034107
11670,-0.197398,-0.402118,-0.345404
11675,-0.703565,-0.355376,0.010707
11680,0.310350,0.370229,0.266527
11685,0.784314,0.332246,0.046764
11690,-0.201113,-0.344330,-0.287209
11695,-0.689232,-0.443126,-0.070371
11700,0.296484,0.512255,0.346319
11705,0.683155,0.369088,-0.002824
11710,-0.280007,-0.455394,-0.317615
11715,-0.903924,-0.385875,0.007087
11720,0.282544,0.430140,0.358259
11725,0.795382,0.439725,0.010086
11730,-0.204253,-0.423806,-0.229532
11735,-0.800027,-0.446833,0.011286
11740,0.274237,0.441609,0.221058
11745,0.716909,0.357641,-0.039125
11750,-0.250025,-0.419313,-0.246784
11755,-0.793889,-0.398344,-0.025111
11760,0.261618,0.355064,0.337314
11765,0.750942,0.366737,-0.056490
11770,-0.188487,-0.397648,-0.296201
11775,-0.720214,-0.506132,0.048063
11780,0.119916,0.388495,0.325132
11785,0.724374,0.527035,0.018894
11790,-0.187155,-0.391022,-0.218591
11795,-0.835230,-0.308197,0.003582
11800,0.312185,0.402765,0.370559
11805,0.832687,0.362483,0.080713
11810,-0.290630,-0.497364,-0.297323
11815,-0.818047,-0.395007,0.034549
11820,0.178997,0.486349,0.301764
11825,0.749450,0.458781,0.085462
11830,-0.351936,-0.464224,-0.246425
11835,-0.849047,-0.477267,-0.053923
11840,0.151157,0.415729,0.342557
11845,0.792935,0.416820,0.014204
11850,-0.148725,-0.503477,-0.289688
11855,-0.731339,-0.406937,0.013777
11860,0.275922,0.426716,0.231981
11865,0.776650,0.445537,0.021543
11870,-0.235834,-0.431442,-0.318583
11875,-0.790016,-0.446569,0.012703
11880,0.287772,0.465058,0.331845
11885,0.664696,0.501936,-0.121294
11890,-0.234971,-0.449706,-0.374846
11895,-0.770521,-0.368419,0.008521
11900,0.225861,0.486746,0.336598
11905,0.744787,0.401274,0.024996
11910,-0.233215,-0.377011,-0.341815
11915,-0.828462,-0.429675,0.008811
11920,0.258035,0.433871,0.320698
11925,0.800105,0.487412,-0.021657
11930,-0.118576,-0.419629,-0.435136
11935,-0.852323,-0.416434,0.030930
11940,0.182166,0.346435,0.278835
11945,0.756950,0.396458,-0.018369
11950,-0.245151,-0.351002,-0.270467
11955,-0.723220,-0.372162,0.067138
11960,0.200377,0.531205,0.433689
11965,0.798663,0.339607,-0.068420
11970,-0.322408,-0.428261,-0.338575
11975,-0.777061,-0.430211,0.000749
11980,0.215334,0.493968,0.334873
11985,0.733546,0.418705,-0.042434
11990,-0.297877,-0.472242,-0.270185
11995,-0.687243,-0.380570,0.082650
12000,0.117921,0.369885,0.257417
12005,0.739591,0.461606,-0.017011
12010,-0.181285,-0.418359,-0.315836
12015,-0.838554,-0.429366,0.022471
12020,0.279238,0.496725,0.346317
12025,0.772709,0.395746,-0.026250
12030,-0.287456,-0.473828,-0.167548
12035,-0.822599,-0.432200,0.003632
12040,0.161384,0.512118,0.344323
12045,0.703946,0.373496,-0.024077
12050,-0.190929,-0.455411,-0.275894
12055,-0.679774,-0.439389,0.008156
12060,0.195053,0.377895,0.286477
12065,0.751997,0.414265,-0.043516
12070,-0.254079,-0.333117,-0.286579
12075,-0.750205,-0.385989,-0.069524
12080,0.248355,0.498020,0.323557
12085,0.788608,0.406727,-0.004756
12090,-0.095587,-0.408374,-0.289088
12095,-0.782390,-0.503210,0.090922
12100,0.285859,0.444168,0.232802
12105,0.784031,0.459727,-0.040410
12110,-0.332749,-0.433860,-0.322165
12115,-0.769807,-0.490845,0.065434
12120,0.066407,0.411288,0.312056
12125,0.798907,0.437611,0.003554
12130,-0.156418,-0.376920,-0.343407
12135,-0.759976,-0.546834,-0.008610
12140,0.191101,0.407224,0.227225
12145,0.786015,0.447554,0.007987
12150,-0.203206,-0.451667,-0.258166
12155,-0.709554,-0.413954,0.001296
12160,0.240107,0.414505,0.291907
12165,0.819720,0.373694,-0.008345
12170,-0.229096,-0.432995,-0.331841
12175,-0.766757,-0.413301,-0.053525
12180,0.294915,0.505170,0.369777
12185,0.820003,0.442592,0.042832
12190,-0.225345,-0.389284,-0.289078
12195,-0.757080,-0.310048,0.023842
12200,0.231522,0.443441,0.241952
12205,0.810892,0.404149,0.060981
12210,-0.103875,-0.420963,-0.228476
12215,-0.744590,-0.518448,0.023549
12220,0.275557,0.450327,0.288454
12225,0.746734,0.430459,0.027973
12230,-0.280077,-0.557970,-0.270731
12235,-0.758349,-0.447911,-0.040775
12240,0.175388,0.370479,0.260062
12245,0.679849,0.392481,-0.047061
12250,-0.189898,-0.427453,-0.342937
12255,-0.785912,-0.341169,0.024939
12260,0.288975,0.360822,0.335013
12265,0.739226,0.519184,-0.036136
12270,-0.150567,-0.413394,-0.301218
12275,-0.716073,-0.377036,-0.015811
12280,0.345313,0.350425,0.280535
12285,0.807964,0.396889,0.098829
12290,-0.143638,-0.325568,-0.260523
12295,-0.773724,-0.453023,-0.040008
12300,0.241854,0.372338,0.174526
12305,0.729824,0.397594,-0.054737
12310,-0.238258,-0.387787,-0.215309
12315,-0.784759,-0.348094,-0.054619
12320,0.240252,0.385020,0.314582
12325,0.739385,0.422299,0.041734
12330,-0.134993,-0.450217,-0.285457
12335,-0.844979,-0.425247,-0.027725
12340,0.297888,0.487791,0.266575
12345,0.758310,0.456993,0.020816
12350,-0.264756,-0.493638,-0.247611
12355,-0.841153,-0.349562,-0.017102
12360,0.160748,0.405710,0.331334
12365,0.773227,0.453245,0.002905
12370,-0.242896,-0.486280,-0.384407
12375,-0.820933,-0.378494,-0.023877
12380,0.259338,0.426674,0.291454
12385,0.725695,0.375277,0.033369
12390,-0.266965,-0.435525,-0.341393
12395,-0.750837,-0.360084,0.038824
12400,0.291425,0.523191,0.321729
12405,0.822119,0.307114,0.006492
12410,-0.187405,-0.532431,-0.317579
12415,-0.730433,-0.443142,-0.023663
12420,0.236301,0.424673,0.281346
12425,0.798474,0.358207,0.050439
12430,-0.233857,-0.381178,-0.351226
12435,-0.835103,-0.418708,-0.022870
12440,0.260519,0.484964,0.284407
12445,0.635962,0.429208,0.038434
12450,-0.170925,-0.424169,-0.267696
12455,-0.795632,-0.419392,-0.092101
12460,0.214004,0.421090,0.326986
12465,0.676523,0.365189,0.056398
12470,-0.192899,-0.449667,-0.259505
12475,-0.771123,-0.430302,0.017918
12480,0.237129,0.470177,0.327761
12485,0.717679,0.397921,-0.017393
12490,-0.199624,-0.397097,-0.347971
12495,-0.766265,-0.466195,-0.008265
12500,0.176775,0.354853,0.263544
12505,0.732333,0.464939,-0.036092
12510,-0.141842,-0.407893,-0.261124
12515,-0.772977,-0.521872,-0.008425
12520,0.262307,0.360822,0.260062
12525,0.798874,0.391576,0.037407
12530,-0.216429,-0.367770,-0.305514
12535,-0.751660,-0.431963,0.026352
12540,0.217833,0.468102,0.286443
12545,0.724111,0.368083,0.007776
12550,-0.235316,-0.426771,-0.301893
12555,-0.727117,-0.381645,-0.104635
12560,0.278810,0.482056,0.297339
12565,0.737195,0.357952,0.026904
12570,-0.166792,-0.475101,-0.275682
12575,-0.760363,-0.447749,-0.029101
12580,0.229830,0.491074,0.284138
12585,0.714003,0.448696,0.013411
12590,-0.228638,-0.468275,-0.233822
12595,-0.760566,-0.451392,0.022381
12600,0.216354,0.367092,0.233748
12605,0.827432,0.420180,0.040867
12610,-0.268205,-0.522803,-0.275780
12615,-0.738078,-0.459326,0.070858
12620,0.246291,0.568770,0.335689
12625,0.715386,0.406523,-0.024831
12630,-0.250864,-0.433631,-0.330958
12635,-0.775314,-0.384493,-0.025950
12640,0.275753,0.434109,0.271012
12645,0.775518,0.464080,0.019665
12650,-0.211340,-0.446933,-0.221533
12655,-0.759581,-0.334851,0.085695
12660,0.234202,0.413111,0.293570
12665,0.749451,0.355666,-0.049485
12670,-0.276407,-0.380701,-0.315427
12675,-0.790743,-0.460539,0.063813
12680,0.115272,0.405901,0.286723
12685,0.839758,0.389665,-0.031453
12690,-0.284138,-0.466212,-0.302756
12695,-0.846789,-0.468104,0.041326
12700,0.231809,0.414949,0.289974
12705,0.827977,0.462961,0.076608
12710,-0.185602,-0.415019,-0.268308
12715,-0.735554,-0.409357,0.060588
12720,0.290667,0.397642,0.205427
12725,0.738624,0.377255,-0.056680
12730,-0.233943,-0.479697,-0.334291
12735,-0.781877,-0.430235,-0.031331
12740,0.218955,0.414126,0.289174
12745,0.761442,0.380757,0.013901
12750,-0.225563,-0.416651,-0.304734
12755,-0.819257,-0.419667,0.019461
12760,0.180384,0.417280,0.351186
12765,0.801972,0.491068,-0.016254
12770,-0.192291,-0.471515,-0.358931
12775,-0.759873,-0.464471,0.038698
12780,0.242716,0.425313,0.222642
12785,0.712833,0.406365,0.084647
12790,-0.232429,-0.445080,-0.314711
12795,-0.698267,-0.472986,-0.021852
12800,0.189407,0.518650,0.246531
12805,0.793915,0.394807,0.092399
12810,-0.230800,-0.445334,-0.233197
12815,-0.791947,-0.373340,-0.019181
12820,0.288019,0.388323,0.241907
12825,0.816023,0.446323,0.017849
12830,-0.267207,-0.496832,-0.308184
12835,-0.750259,-0.434243,-0.027738
12840,0.163317,0.469068,0.236936
12845,0.688352,0.364254,0.013672
12850,-0.163194,-0.397828,-0.393835
12855,-0.752401,-0.420216,0.005235
12860,0.229521,0.433510,0.251097
12865,0.802519,0.375853,0.063224
12870,-0.203209,-0.440686,-0.372176
12875,-0.762089,-0.411070,-0.068325
12880,0.242814,0.428219,0.176493
12885,0.788725,0.305061,-0.022508
12890,-0.256145,-0.520478,-0.335965
12895,-0.760990,-0.491284,-0.025959
12900,0.175404,0.481890,0.261850
12905,0.745670,0.459994,-0.092695
12910,-0.281125,-0.456481,-0.286373
12915,-0.711676,-0.357533,-0.018026
12920,0.278517,0.433515,0.316942
12925,0.733105,0.434196,-0.046905
12930,-0.320876,-0.421138,-0.312066
12935,-0.760625,-0.492265,-0.056097
12940,0.223061,0.515110,0.348863
12945,0.830871,0.476146,0.039027
12950,-0.235976,-0.448221,-0.300632
12955,-0.799589,-0.428283,0.047549
12960,0.298566,0.455219,0.249254
12965,0.804221,0.376777,0.013504
12970,-0.181145,-0.443465,-0.288346
12975,-0.945790,-0.366680,-0.028193
12980,0.300900,0.431338,0.245017
12985,0.760607,0.405104,0.023692
12990,-0.260089,-0.415749,-0.306746
12995,-0.873471,-0.417804,-0.008202
13000,0.271330,0.376494,0.300267
13005,0.784910,0.350563,-0.074437
13010,-0.248841,-0.419094,-0.285177
13015,-0.729317,-0.518759,0.062100
13020,0.324950,0.456594,0.415581
13025,0.762672,0.427431,-0.000197
13030,-0.299383,-0.483456,-0.343634
13035,-0.769927,-0.374406,0.066760
13040,0.134637,0.412868,0.281903
13045,0.848747,0.447405,-0.008395
13050,-0.193476,-0.465713,-0.266738
13055,-0.823866,-0.483561,-0.017638
13060,0.249117,0.441980,0.295656
13065,0.854569,0.454716,-0.013242
13070,-0.155854,-0.459044,-0.311147
13075,-0.797831,-0.391809,0.057899
13080,0.239540,0.504108,0.226856
13085,0.717228,0.454721,-0.074434
13090,-0.251542,-0.449162,-0.371795
13095,-0.834031,-0.368313,0.107826
13100,0.229340,0.401304,0.276284
13105,0.718343,0.336389,-0.039696
13110,-0.242715,-0.420301,-0.321718
13115,-0.800040,-0.299873,0.035678
13120,0.232150,0.438818,0.367452
13125,0.762571,0.376860,-0.018327
13130,-0.323166,-0.537545,-0.306262
13135,-0.842277,-0.428793,0.006951
13140,0.269133,0.502828,0.246622
13145,0.755466,0.352671,0.031539
13150,-0.266238,-0.484981,-0.341256
13155,-0.764256,-0.456529,-0.003599
13160,0.276807,0.406468,0.256589
13165,0.757029,0.365325,-0.008497
13170,-0.309295,-0.440946,-0.236412
13175,-0.804697,-0.503968,0.061138
13180,0.216914,0.612415,0.357292
13185,0.878191,0.461314,0.020860
13190,-0.180666,-0.456827,-0.252971
13195,-0.751322,-0.450919,-0.008604
13200,0.225270,0.419747,0.214265
13205,0.866950,0.367711,-0.021746
13210,-0.221634,-0.308188,-0.353763
13215,-0.700733,-0.430838,0.096210
13220,0.334699,0.452863,0.330830
13225,0.814817,0.441717,-0.054427
13230,-0.340739,-0.414405,-0.362652
13235,-0.746275,-0.391056,0.075304
13240,0.297556,0.505877,0.343948
13245,0.689289,0.365708,0.044288
13250,-0.183908,-0.390522,-0.277157
13255,-0.771678,-0.414376,0.011008
13260,0.330277,0.386870,0.324515
13265,0.749422,0.459942,-0.000245
13270,-0.239558,-0.465398,-0.287663
13275,-0.689728,-0.382969,-0.016961
13280,0.170598,0.375585,0.257439
13285,0.810480,0.388961,-0.047832
13290,-0.257495,-0.378195,-0.350954
13295,-0.751386,-0.432597,-0.018056
13300,0.270570,0.437324,0.336919
13305,0.742111,0.437959,-0.025827
13310,-0.233971,-0.419219,-0.376907
13315,-0.693143,-0.372621,0.045248
13320,0.285123,0.398375,0.312335
13325,0.821227,0.368044,-0.039140
13330,-0.326080,-0.412225,-0.288635
13335,-0.821383,-0.469553,0.039986
13340,0.201084,0.346677,0.366536
13345,0.871443,0.457383,0.065053
13350,-0.256968,-0.438177,-0.322017
13355,-0.775005,-0.422483,0.015783
13360,0.191212,0.383620,0.290916
13365,0.801451,0.408033,-0.008273
13370,-0.182778,-0.447848,-0.307784
13375,-0.817383,-0.415621,0.015038
13380,0.265850,0.391386,0.297339
13385,0.851827,0.389889,0.007555
13390,-0.195161,-0.441693,-0.332586
13395,-0.684332,-0.349283,-0.060747
13400,0.226029,0.349078,0.264772
13405,0.795188,0.399797,-0.036180
13410,-0.223927,-0.398232,-0.264907
13415,-0.717781,-0.388209,0.034408
13420,0.255547,0.414435,0.287926
13425,0.743691,0.370738,-0.034730
13430,-0.270415,-0.407047,-0.279224
13435,-0.742995,-0.493198,-0.007659
13440,0.246834,0.492704,0.256983
13445,0.778265,0.342800,-0.044458
13450,-0.191195,-0.484376,-0.292696
13455,-0.740253,-0.364938,0.004291
13460,0.276363,0.368898,0.282930
13465,0.737657,0.371764,0.019518
13470,-0.275393,-0.351813,-0.313900
13475,-0.704952,-0.390726,-0.022885
13480,0.117727,0.414071,0.314141
13485,0.760241,0.466752,0.039122
13490,-0.215369,-0.390850,-0.189471
13495,-0.716685,-0.385207,0.106978
13500,0.227084,0.487898,0.313079
13505,0.771621,0.470185,0.034954
13510,-0.270795,-0.386757,-0.356224
13515,-0.822248,-0.382759,0.024844
13520,0.147325,0.470526,0.270766
13525,0.791614,0.399102,-0.043390
13530,-0.278882,-0.473635,-0.338375
13535,-0.838632,-0.489517,0.027119
13540,0.253063,0.478628,0.277559
13545,0.698615,0.450288,0.043887
13550,-0.301362,-0.425561,-0.361934
13555,-0.757040,-0.439543,-0.036561
13560,0.146626,0.428457,0.364442
13565,0.781227,0.401358,-0.024034
13570,-0.226424,-0.366443,-0.275335
13575,-0.786187,-0.410832,0.043763
13580,0.157918,0.566512,0.288888
13585,0.709874,0.413763,-0.023171
13590,-0.281729,-0.400859,-0.288736
13595,-0.766328,-0.455040,0.035958
13600,0.221383,0.425508,0.244019
13605,0.739716,0.400409,0.051135
13610,-0.224473,-0.431404,-0.288802
13615,-0.755330,-0.484081,-0.030673
13620,0.232770,0.420599,0.277796
13625,0.732719,0.417623,0.066011
13630,-0.228208,-0.364801,-0.305440
13635,-0.698442,-0.385745,0.095027
13640,0.178627,0.431563,0.352141
13645,0.712605,0.526045,0.002405
13650,-0.267970,-0.464091,-0.289094
13655,-0.782708,-0.448193,-0.071401
13660,0.148808,0.447450,0.304662
13665,0.744836,0.383920,0.072167
13670,-0.255177,-0.453912,-0.391618
13675,-0.662469,-0.455723,0.006036
13680,0.141282,0.456467,0.270282
13685,0.821666,0.443209,-0.015319
13690,-0.305791,-0.399487,-0.277970
13695,-0.775877,-0.450231,-0.033538
13700,0.194654,0.460821,0.301515
13705,0.845326,0.416331,0.024763
13710,-0.256791,-0.377390,-0.327602
13715,-0.730085,-0.374805,-0.001182
13720,0.176131,0.375222,0.271165
13725,0.794537,0.445804,-0.058143
13730,-0.201948,-0.413447,-0.251899
13735,-0.731633,-0.349943,0.015789
13740,0.158252,0.391477,0.277703
13745,0.701188,0.379304,-0.007810
13750,-0.260814,-0.436132,-0.246202
13755,-0.720783,-0.370297,-0.019982
13760,0.267567,0.430219,0.288229
13765,0.758516,0.460647,0.027829
13770,-0.150950,-0.427407,-0.259577
13775,-0.791651,-0.429915,-0.077077
13780,0.267503,0.438832,0.372771
13785,0.810836,0.406003,0.042502
13790,-0.270248,-0.404185,-0.390914
13795,-0.790140,-0.478998,-0.005127
13800,0.249822,0.482704,0.285393
13805,0.714613,0.386975,0.009480
13810,-0.312129,-0.425927,-0.209182
13815,-0.712309,-0.505946,-0.033405
13820,0.299873,0.445461,0.255729
13825,0.724286,0.468564,-0.049457
13830,-0.196867,-0.407620,-0.347580
13835,-0.807521,-0.370862,-0.113583
13840,0.241773,0.431347,0.258639
13845,0.807671,0.379698,0.022395
13850,-0.304140,-0.474876,-0.334259
13855,-0.780855,-0.499587,0.000775
13860,0.213986,0.398806,0.362249
13865,0.781725,0.456749,-0.007260
13870,-0.203391,-0.372457,-0.212927
13875,-0.750340,-0.381484,0.077475
13880,0.172276,0.504260,0.330138
13885,0.888754,0.404383,0.074278
13890,-0.399643,-0.442544,-0.316201
13895,-0.801900,-0.375335,0.122819
13900,0.248711,0.464152,0.368255
13905,0.780587,0.355146,-0.094039
13910,-0.161980,-0.514944,-0.287436
13915,-0.725581,-0.347570,-0.099715
13920,0.224221,0.439355,0.278349
13925,0.756167,0.406366,0.029754
13930,-0.288194,-0.424319,-0.301549
13935,-0.803153,-0.435049,0.020548
13940,0.229442,0.414376,0.291359
13945,0.780184,0.419367,0.029512
13950,-0.180151,-0.476637,-0.337471
13955,-0.814931,-0.458047,-0.001022
13960,0.195577,0.459370,0.314898
13965,0.730303,0.448548,-0.000582
13970,-0.120337,-0.478050,-0.304278
13975,-0.729913,-0.432864,0.075597
13980,0.203844,0.470952,0.322784
13985,0.794346,0.414777,-0.045408
13990,-0.196695,-0.364838,-0.247879
13995,-0.803157,-0.466890,0.008166
14000,0.263208,0.434839,0.241048
14005,0.707218,0.472519,-0.081237
14010,-0.274469,-0.344669,-0.288820
14015,-0.708275,-0.492695,0.054771
14020,0.224239,0.347925,0.344652
14025,0.670359,0.300904,0.081922
14030,-0.247137,-0.434391,-0.275882
14035,-0.749866,-0.346455,0.047623
14040,0.277572,0.293091,0.269232
14045,0.599072,0.502704,-0.044196
14050,-0.175392,-0.435679,-0.377297
14055,-0.775052,-0.361457,-0.074017
14060,0.304213,0.394478,0.256936
14065,0.716993,0.403253,0.004480
14070,-0.201235,-0.450809,-0.279307
14075,-0.738726,-0.393475,-0.039894
14080,0.218649,0.469837,0.269463
14085,0.739113,0.411098,-0.003602
14090,-0.279290,-0.373873,-0.300659
14095,-0.736138,-0.400801,-0.047354
14100,0.198953,0.477539,0.289627
14105,0.749281,0.470864,-0.027055
14110,-0.248401,-0.423760,-0.307782
14115,-0.783443,-0.329903,0.047802
14120,0.283089,0.400960,0.390788
14125,0.733727,0.385351,0.048711
14130,-0.312822,-0.461456,-0.315382
14135,-0.721134,-0.426190,-0.054839
14140,0.272622,0.476005,0.292150
14145,0.809465,0.384131,0.083619
14150,-0.309295,-0.471287,-0.291214
14155,-0.727407,-0.426059,-0.039133
14160,0.230453,0.394186,0.360519
14165,0.848820,0.398860,0.044412
14170,-0.177545,-0.420139,-0.316300
14175,-0.784117,-0.447798,-0.009496
14180,0.258928,0.484683,0.300235
14185,0.748739,0.441774,-0.032551
14190,-0.230614,-0.487067,-0.249153
14195,-0.762143,-0.417730,0.019629
14200,0.265741,0.483266,0.311872
14205,0.684062,0.325096,0.130523
14210,-0.203267,-0.486336,-0.388412
14215,-0.698575,-0.437956,0.036157
14220,0.232326,0.454983,0.304629
14225,0.741426,0.366842,0.029214
14230,-0.129664,-0.428013,-0.378735
14235,-0.735199,-0.396958,0.043227
14240,0.263184,0.459953,0.248315
14245,0.810968,0.382398,0.014354
14250,-0.301961,-0.368876,-0.207690
14255,-0.777298,-0.445788,0.038657
14260,0.188057,0.409790,0.221779
14265,0.663999,0.332723,-0.014529
14270,-0.265055,-0.426070,-0.310274
14275,-0.742706,-0.366924,-0.032978
14280,0.232857,0.465319,0.312322
14285,0.841661,0.453480,0.013243
14290,-0.219295,-0.380329,-0.378460
14295,-0.895563,-0.478165,0.047225
14300,0.118987,0.510669,0.319897
14305,0.718975,0.514227,0.025757
14310,-0.178285,-0.428643,-0.239029
14315,-0.741321,-0.408095,-0.017082
14320,0.216906,0.421460,0.349445
14325,0.815591,0.448122,0.068385
14330,-0.077342,-0.420470,-0.354069
14335,-0.823346,-0.407304,-0.100288
14340,0.231918,0.439430,0.277907
14345,0.776201,0.428617,0.098064
14350,-0.248283,-0.412108,-0.232542
14355,-0.863992,-0.447479,0.085827
14360,0.216215,0.452696,0.397934
14365,0.798490,0.419413,0.035926
14370,-0.250056,-0.313517,-0.225835
14375,-0.794132,-0.426098,0.007452
14380,0.155099,0.415032,0.267336
14385,0.696085,0.338559,0.033166
14390,-0.284313,-0.385536,-0.321495
14395,-0.804914,-0.476580,-0.013114
14400,0.242451,0.441597,0.268995
14405,0.854749,0.421149,-0.040009
14410,-0.343045,-0.481806,-0.299757
14415,-0.748090,-0.362045,-0.022283
14420,0.303328,0.353644,0.376190
14425,0.708299,0.304761,-0.047406
14430,-0.205064,-0.496364,-0.372702
14435,-0.661491,-0.488392,-0.128867
14440,0.336282,0.443229,0.285146
14445,0.744525,0.380980,0.007085
14450,-0.150117,-0.406697,-0.297917
14455,-0.766742,-0.402448,0.072259
14460,0.179213,0.331909,0.312866
14465,0.715052,0.390186,-0.049370
14470,-0.241616,-0.457619,-0.375929
14475,-0.744043,-0.483731,-0.006186
14480,0.250902,0.418273,0.282164
14485,0.789550,0.443346,-0.014233
14490,-0.274047,-0.449471,-0.309011
14495,-0.688208,-0.429448,-0.063671
14500,0.281031,0.365562,0.304018
14505,0.756084,0.494434,-0.041030
14510,-0.285805,-0.424627,-0.352001
14515,-0.636579,-0.397502,0.044674
14520,0.224248,0.406857,0.294975
14525,0.730304,0.420743,-0.054341
14530,-0.270184,-0.421101,-0.320712
14535,-0.800997,-0.447676,0.010907
14540,0.206559,0.340337,0.232918
14545,0.673759,0.473316,-0.023852
14550,-0.238502,-0.367762,-0.331109
14555,-0.769794,-0.424816,-0.021877
14560,0.255530,0.499351,0.269169
14565,0.710465,0.409783,-0.068756
14570,-0.200056,-0.449524,-0.362055
14575,-0.755351,-0.405109,0.046187
14580,0.291110,0.449956,0.244966
14585,0.802116,0.433815,0.074360
14590,-0.260177,-0.433746,-0.313948
14595,-0.862973,-0.379997,-0.016366
14600,0.241285,0.450964,0.225683
14605,0.783535,0.447163,-0.011634
14610,-0.306476,-0.468603,-0.404866
14615,-0.725127,-0.439903,-0.007156
14620,0.155569,0.411546,0.316934
14625,0.691032,0.432062,0.001791
14630,-0.201682,-0.487073,-0.277958
14635,-0.790942,-0.318483,-0.099279
14640,0.223712,0.402265,0.353947
14645,0.721728,0.338785,-0.029113
14650,-0.302186,-0.308297,-0.347654
14655,-0.790582,-0.433491,0.028723
14660,0.134978,0.381674,0.231340
14665,0.805761,0.383055,-0.009959
14670,-0.268444,-0.333994,-0.216286
14675,-0.776472,-0.509368,0.014214
14680,0.198396,0.353283,0.310133
14685,0.725321,0.386882,-0.094655
14690,-0.177609,-0.318119,-0.320065
14695,-0.778725,-0.476051,0.004698
14700,0.245215,0.532131,0.380571
14705,0.733488,0.367781,-0.029088
14710,-0.306303,-0.494518,-0.362133
14715,-0.808210,-0.411099,0.009693
14720,0.280519,0.444338,0.391497
14725,0.791378,0.347465,-0.056360
14730,-0.232021,-0.525534,-0.251558
14735,-0.693936,-0.377786,0.041996
14740,0.263947,0.416788,0.398329
14745,0.667640,0.422999,0.050162
14750,-0.191072,-0.360585,-0.287243
14755,-0.826758,-0.394900,-0.044281
14760,0.116491,0.373957,0.357056
14765,0.767517,0.386234,-0.062499
14770,-0.239211,-0.363313,-0.312789
14775,-0.762809,-0.429623,0.110139
14780,0.192744,0.413186,0.264935
14785,0.790095,0.487116,-0.058655
14790,-0.398534,-0.383784,-0.313043
14795,-0.737459,-0.398506,-0.010399
14800,0.294876,0.392136,0.348587
14805,0.729842,0.439478,0.046049
14810,-0.143469,-0.479420,-0.308078
14815,-0.713468,-0.388805,0.014803
14820,0.380394,0.413957,0.314599
14825,0.729582,0.402507,0.001128
14830,-0.319894,-0.468633,-0.405846
14835,-0.753691,-0.359367,-0.050006
14840,0.224661,0.342328,0.349676
14845,0.822086,0.414791,-0.000678
14850,-0.207623,-0.516479,-0.301628
14855,-0.860245,-0.402618,-0.041744
14860,0.212914,0.409036,0.296802
14865,0.742789,0.407540,0.030078
14870,-0.172755,-0.376469,-0.305314
14875,-0.753891,-0.393109,0.021267
14880,0.235333,0.454016,0.373626
14885,0.724473,0.395291,-0.042751
14890,-0.201513,-0.437115,-0.379380
14895,-0.806646,-0.442842,-0.019749
14900,0.189783,0.416346,0.293227
14905,0.764269,0.311934,-0.066730
14910,-0.172814,-0.491146,-0.346495
14915,-0.880687,-0.453063,-0.016481
14920,0.228884,0.408406,0.344335
14925,0.803440,0.493865,-0.002317
14930,-0.263332,-0.431282,-0.301539
14935,-0.824851,-0.440157,-0.054049
14940,0.170544,0.463281,0.267139
14945,0.720593,0.401872,-0.064706
14950,-0.211836,-0.402687,-0.253843
14955,-0.709971,-0.400269,-0.009498
14960,0.212004,0.437330,0.203409
14965,0.810623,0.419308,-0.013716
14970,-0.243090,-0.381006,-0.346793
14975,-0.728562,-0.459422,0.060075
14980,0.195336,0.522379,0.385289
14985,0.734334,0.433748,0.010768
14990,-0.220345,-0.390279,-0.269793
14995,-0.787956,-0.405093,0.010941
15000,0.282765,0.431201,0.209350
15005,0.750471,0.498060,0.078483
15010,-0.203708,-0.370465,-0.274012
15015,-0.752088,-0.463511,0.051760
15020,0.240142,0.405056,0.257338
15025,0.809754,0.413843,-0.127710
15030,-0.253995,-0.463936,-0.362247
15035,-0.688432,-0.435236,0.040372
15040,0.347565,0.351695,0.393454
15045,0.754585,0.532853,0.086138
15050,-0.250930,-0.565890,-0.230234
15055,-0.732515,-0.396295,-0.032680
15060,0.168546,0.394072,0.312022
15065,0.763593,0.394301,-0.032321
15070,-0.312530,-0.464985,-0.297001
15075,-0.688328,-0.439171,-0.010854
15080,0.243711,0.393108,0.342227
15085,0.787778,0.433131,0.009958
15090,-0.248270,-0.411856,-0.262009
15095,-0.786232,-0.474970,0.014784
15100,0.195051,0.367047,0.318433
15105,0.713923,0.474193,-0.041958
15110,-0.333255,-0.486676,-0.323079
15115,-0.765217,-0.442516,-0.059906
15120,0.299205,0.456840,0.291201
15125,0.723936,0.411344,0.036682
15130,-0.214667,-0.452267,-0.304347
15135,-0.782915,-0.437335,0.023730
15140,0.268140,0.487402,0.378714
15145,0.819472,0.423596,0.016350
15150,-0.237603,-0.444761,-0.311608
15155,-0.744806,-0.403778,-0.002340
15160,0.196318,0.488218,0.255706
15165,0.783605,0.385588,0.021333
15170,-0.240747,-0.457263,-0.359662
15175,-0.629109,-0.473510,-0.028448
15180,0.253607,0.456177,0.257525
15185,0.692018,0.426734,0.101992
15190,-0.142706,-0.444207,-0.271252
15195,-0.810953,-0.415428,-0.005206
15200,0.216009,0.447160,0.283108
15205,0.742761,0.492285,0.063594
15210,-0.159900,-0.368314,-0.329420
15215,-0.728498,-0.457959,0.138235
15220,0.188989,0.457610,0.335358
15225,0.811638,0.487514,-0.090272
15230,-0.272491,-0.409424,-0.260172
15235,-0.661508,-0.451730,0.051879
15240,0.307838,0.482481,0.310124
15245,0.750031,0.356222,0.011603
15250,-0.166061,-0.319326,-0.307621
15255,-0.788448,-0.485571,-0.003037
15260,0.199364,0.337004,0.357719
15265,0.762990,0.434967,-0.001741
15270,-0.286499,-0.488129,-0.303386
15275,-0.699351,-0.415097,-0.011085
15280,0.307578,0.515359,0.387632
15285,0.845686,0.372133,-0.016741
15290,-0.282448,-0.366581,-0.253145
15295,-0.704252,-0.399805,-0.068029
15300,0.180634,0.388597,0.341976
15305,0.716416,0.500979,-0.023535
15310,-0.248751,-0.476243,-0.275899
15315,-0.749775,-0.309076,-0.016214
15320,0.283767,0.392355,0.247697
15325,0.712487,0.378939,-0.023771
15330,-0.255925,-0.416914,-0.321949
15335,-0.854017,-0.446994,-0.045700
15340,0.317540,0.318554,0.272373
15345,0.703971,0.448690,0.100720
15350,-0.097799,-0.503951,-0.324160
15355,-0.832010,-0.528715,-0.052336
15360,0.199640,0.481398,0.240339
15365,0.735371,0.442563,0.031426
15370,-0.257851,-0.478446,-0.398742
15375,-0.820696,-0.401076,0.057584
15380,0.219721,0.440058,0.352071
15385,0.746808,0.371824,-0.071603
15390,-0.269153,-0.438870,-0.320236
15395,-0.865481,-0.426776,0.036075
15400,0.261422,0.281364,0.323171
15405,0.786996,0.417618,-0.017666
15410,-0.242483,-0.476710,-0.278334
15415,-0.880282,-0.452419,0.028068
15420,0.199043,0.479744,0.435689
15425,0.771922,0.442471,0.069675
15430,-0.185420,-0.395553,-0.351690
15435,-0.813862,-0.353406,-0.089869
15440,0.211129,0.399890,0.324222
15445,0.852613,0.399093,0.037003
15450,-0.231073,-0.476919,-0.242422
15455,-0.764519,-0.340001,0.011150
15460,0.273750,0.488992,0.208972
15465,0.818679,0.479482,-0.013558
15470,-0.338061,-0.372175,-0.321924
15475,-0.806430,-0.427919,0.019620
15480,0.132951,0.394646,0.313086
15485,0.721165,0.477563,-0.001540
15490,-0.200609,-0.398654,-0.283275
15495,-0.768981,-0.508062,-0.043712
15500,0.157865,0.477216,0.304038
15505,0.793474,0.447120,0.035279
15510,-0.257317,-0.319177,-0.397986
15515,-0.795959,-0.397744,0.010061
15520,0.146160,0.425882,0.311447
15525,0.841099,0.300203,0.009318
15530,-0.202956,-0.393296,-0.247574
15535,-0.877922,-0.442872,-0.032673
15540,0.161591,0.468154,0.281785
15545,0.795388,0.435141,0.027603
15550,-0.187981,-0.406895,-0.321943
15555,-0.690320,-0.413490,0.009834
15560,0.258228,0.430600,0.294318
15565,0.763140,0.397256,0.030788
15570,-0.256258,-0.397378,-0.268762
15575,-0.772376,-0.368020,0.035806
15580,0.068775,0.384062,0.261073
15585,0.825583,0.452721,-0.013670
15590,-0.205469,-0.396707,-0.280008
15595,-0.714697,-0.326868,0.022347
15600,0.236810,0.445562,0.261348
15605,0.775646,0.389361,-0.067519
15610,-0.218072,-0.464038,-0.255103
15615,-0.863578,-0.433063,-0.019455
15620,0.223252,0.507758,0.278201
15625,0.761466,0.385180,-0.003478
15630,-0.177538,-0.393686,-0.340806
15635,-0.797027,-0.363258,-0.060383
15640,0.267126,0.441436,0.356150
15645,0.764796,0.468376,-0.011880
15650,-0.210563,-0.410610,-0.273607
15655,-0.794987,-0.441965,0.102518
15660,0.263364,0.509729,0.340481
15665,0.729176,0.303752,-0.100343
15670,-0.044100,-0.494085,-0.324388
15675,-0.723842,-0.448018,0.021255
15680,0.279138,0.442606,0.341280
15685,0.833803,0.387334,-0.004279
15690,-0.209199,-0.357263,-0.361171
15695,-0.763282,-0.498741,0.088149
15700,0.211135,0.485350,0.275802
15705,0.770125,0.427098,-0.027967
15710,-0.137966,-0.437263,-0.308593
15715,-0.854667,-0.355885,0.008753
15720,0.256231,0.385632,0.338717
15725,0.794792,0.438596,-0.019008
15730,-0.234084,-0.488650,-0.311706
15735,-0.790215,-0.409733,-0.036404
15740,0.190706,0.488545,0.313972
15745,0.747594,0.493899,0.053014
15750,-0.189617,-0.508011,-0.373481
15755,-0.694308,-0.386825,-0.004599
15760,0.245272,0.419292,0.343662
15765,0.724610,0.407694,-0.007010
15770,-0.265032,-0.365758,-0.224927
15775,-0.635171,-0.437471,0.014213
15780,0.224889,0.416300,0.251106
15785,0.697097,0.351068,-0.020106
15790,-0.248078,-0.445211,-0.304716
15795,-0.793683,-0.311497,0.003180
15800,0.177236,0.355098,0.361863
15805,0.760381,0.530422,0.017727
15810,-0.181373,-0.379509,-0.302836
15815,-0.788235,-0.399891,0.072460
15820,0.201597,0.420781,0.229913
15825,0.824398,0.430807,-0.023246
15830,-0.286850,-0.419079,-0.289101
15835,-0.738622,-0.404624,-0.015799
15840,0.300093,0.436696,0.238106
15845,0.801775,0.476634,0.000659
15850,-0.292353,-0.387652,-0.249085
15855,-0.727486,-0.437758,0.041695
15860,0.323470,0.507529,0.286441
15865,0.800266,0.460640,0.041190
15870,-0.171619,-0.413383,-0.317095
15875,-0.751359,-0.436477,-0.044747
15880,0.208310,0.485544,0.387826
15885,0.807097,0.498232,0.033912
15890,-0.300632,-0.466993,-0.268280
15895,-0.796027,-0.399432,0.006583
15900,0.273218,0.439714,0.303712
15905,0.821671,0.509131,-0.053141
15910,-0.238428,-0.389688,-0.222406
15915,-0.767982,-0.393462,-0.037862
15920,0.268573,0.431215,0.276604
15925,0.806031,0.448355,0.032394
15930,-0.200691,-0.428563,-0.266526
15935,-0.829997,-0.426498,0.049021
15940,0.237899,0.435850,0.354979
15945,0.804566,0.313979,-0.042091
15950,-0.303689,-0.530661,-0.311163
15955,-0.850913,-0.397532,-0.013565
15960,0.270702,0.467979,0.374158
15965,0.730973,0.468240,0.012030
15970,-0.173013,-0.435569,-0.244241
15975,-0.676165,-0.433864,0.053104
15980,0.229518,0.445508,0.283288
15985,0.682646,0.326940,-0.046940
15990,-0.244256,-0.443034,-0.339751
15995,-0.741646,-0.463065,0.027682
16000,0.185863,0.440372,0.322804
16005,0.766957,0.466954,-0.139644
16010,-0.216594,-0.445384,-0.343448
16015,-0.826639,-0.344645,-0.090284
16020,0.298617,0.403345,0.237704
16025,0.772071,0.354429,-0.066004
16030,-0.185750,-0.513769,-0.254459
16035,-0.725391,-0.389992,0.016760
16040,0.347996,0.478511,0.201812
16045,0.755643,0.378695,-0.054338
16050,-0.188376,-0.325165,-0.290284
16055,-0.824071,-0.388571,-0.024397
16060,0.190542,0.426331,0.240137
16065,0.717172,0.449383,0.033923
16070,-0.208402,-0.533621,-0.375128
16075,-0.824237,-0.404602,-0.018009
16080,0.167854,0.468129,0.274149
16085,0.698251,0.372921,0.152097
16090,-0.248949,-0.419026,-0.268628
16095,-0.758228,-0.446123,0.040578
16100,0.200492,0.421241,0.290229
16105,0.785412,0.425903,0.093999
16110,-0.240339,-0.364017,-0.283724
16115,-0.781125,-0.378335,-0.030267
16120,0.150664,0.484548,0.234832
16125,0.797529,0.456966,0.076844
16130,-0.291583,-0.481655,-0.349567
16135,-0.838889,-0.373840,0.079675
16140,0.213293,0.533988,0.281483
16145,0.707591,0.444337,-0.002941
16150,-0.240822,-0.418259,-0.278512
16155,-0.768315,-0.409414,0.014400
16160,0.249187,0.412063,0.305705
16165,0.797413,0.381522,0.004330
16170,-0.369647,-0.486459,-0.227986
16175,-0.837947,-0.440961,-0.042229
16180,0.342474,0.423559,0.284481
16185,0.786276,0.415276,0.002417
16190,-0.354335,-0.429672,-0.358930
16195,-0.825674,-0.394242,-0.046035
16200,0.225291,0.459781,0.319089
16205,0.721442,0.347540,-0.086772
16210,-0.136675,-0.414823,-0.290498
16215,-0.811436,-0.468221,-0.040305
16220,0.182234,0.334706,0.313961
16225,0.624749,0.474952,-0.018111
16230,-0.192438,-0.390631,-0.362599
16235,-0.775908,-0.431919,-0.028384
16240,0.325879,0.456949,0.349676
16245,0.756517,0.425977,-0.080792
16250,-0.246487,-0.412385,-0.287118
16255,-0.703725,-0.378503,-0.022940
16260,0.288629,0.430112,0.306056
16265,0.761417,0.482444,0.082101
16270,-0.171318,-0.508567,-0.226271
16275,-0.696887,-0.417551,0.050666
16280,0.226735,0.411263,0.313273
16285,0.726628,0.413962,0.111252
16290,-0.227253,-0.388284,-0.413036
16295,-0.767209,-0.324280,-0.043414
16300,0.106843,0.422280,0.313214
16305,0.749349,0.453409,0.038996
16310,-0.290534,-0.334893,-0.343109
16315,-0.722381,-0.315444,0.001790
16320,0.206652,0.448813,0.192461
16325,0.771989,0.359587,-0.072173
16330,-0.247784,-0.464897,-0.287929
16335,-0.774624,-0.347670,0.082286
16340,0.276042,0.479068,0.369143
16345,0.741456,0.395046,0.007365
16350,-0.299540,-0.468205,-0.383393
16355,-0.752166,-0.432739,0.009450
16360,0.195514,0.451666,0.334011
16365,0.734913,0.389239,-0.015170
16370,-0.265836,-0.446943,-0.378387
16375,-0.737362,-0.329093,-0.024648
16380,0.277691,0.421539,0.219077
16385,0.813204,0.342682,0.060585
16390,-0.231852,-0.449316,-0.304171
16395,-0.822842,-0.369380,-0.059439
16400,0.246820,0.472960,0.326311
16405,0.726301,0.439464,0.004850
16410,-0.237503,-0.443749,-0.296599
16415,-0.767149,-0.305680,-0.032871
16420,0.253534,0.402713,0.305086
16425,0.670722,0.276764,0.000017
16430,-0.256150,-0.403259,-0.316368
16435,-0.752489,-0.417741,0.098297
16440,0.160526,0.437057,0.361823
16445,0.720851,0.476012,-0.013315
16450,-0.195268,-0.365641,-0.210477
16455,-0.792076,-0.393967,-0.061495
16460,0.278141,0.497570,0.339780
16465,0.890108,0.459953,-0.025812
16470,-0.275446,-0.379158,-0.241185
16475,-0.728651,-0.356735,0.003429
16480,0.129500,0.461926,0.240026
16485,0.731384,0.400024,0.037716
16490,-0.203980,-0.433159,-0.283096
16495,-0.755594,-0.446042,-0.055985
16500,0.249685,0.480652,0.302425
16505,0.664295,0.369541,-0.022660
16510,-0.189062,-0.460978,-0.322893
16515,-0.767609,-0.389328,-0.049152
16520,0.275860,0.390116,0.213696
16525,0.746308,0.445367,0.031253
16530,-0.283817,-0.389519,-0.306512
16535,-0.774154,-0.491807,0.032359
16540,0.307099,0.525259,0.233966
16545,0.742974,0.453633,0.051045
16550,-0.113166,-0.461048,-0.304423
16555,-0.825780,-0.512682,-0.067469
16560,0.268577,0.402021,0.315148
16565,0.738639,0.381513,0.014489
16570,-0.220350,-0.481653,-0.272991
16575,-0.805421,-0.411620,-0.004808
16580,0.218467,0.420937,0.271158
16585,0.734592,0.398779,0.092270
16590,-0.327519,-0.419081,-0.197956
16595,-0.791478,-0.397454,-0.041896
16600,0.193804,0.440067,0.239350
16605,0.730151,0.473446,-0.029857
16610,-0.248594,-0.453528,-0.358344
16615,-0.822825,-0.396344,-0.010919
16620,0.154015,0.399944,0.345446
16625,0.695558,0.451106,-0.057721
16630,-0.206191,-0.432769,-0.270738
16635,-0.733446,-0.300423,-0.032783
16640,0.224033,0.452096,0.297586
16645,0.782346,0.518954,0.001484
16650,-0.240466,-0.405057,-0.316865
16655,-0.716689,-0.439220,0.013429
16660,0.202693,0.371640,0.417508
16665,0.704866,0.409340,0.063430
16670,-0.244847,-0.459224,-0.194109
16675,-0.696145,-0.427717,0.014419
16680,0.208268,0.510196,0.167015
16685,0.846524,0.403253,-0.059449
16690,-0.267194,-0.415339,-0.321466
16695,-0.724601,-0.487754,-0.048150
16700,0.253698,0.413733,0.363800
16705,0.781046,0.310053,0.087729
16710,-0.263044,-0.458830,-0.360371
16715,-0.685505,-0.441637,-0.019693
16720,0.198892,0.412145,0.289253
16725,0.813880,0.426946,-0.130585
16730,-0.295154,-0.498614,-0.276034
16735,-0.697157,-0.474770,-0.009995
16740,0.235513,0.399247,0.256589
16745,0.729154,0.451411,0.001780
16750,-0.203916,-0.349532,-0.335886
16755,-0.769069,-0.475871,-0.020648
16760,0.210990,0.484453,0.288670
16765,0.849048,0.395949,-0.037564
16770,-0.252105,-0.397164,-0.291555
16775,-0.699741,-0.343856,-0.000009
16780,0.202431,0.382766,0.368188
16785,0.703834,0.408561,0.019098
16790,-0.212709,-0.434058,-0.306493
16795,-0.743721,-0.334164,-0.062311
16800,0.187586,0.443420,0.362564
16805,0.814914,0.454301,-0.036134
16810,-0.261420,-0.453829,-0.372678
16815,-0.725006,-0.444877,-0.008338
16820,0.166683,0.444995,0.282628
16825,0.768479,0.471229,0.012235
16830,-0.252014,-0.441447,-0.290949
16835,-0.651323,-0.425735,-0.055127
16840,0.324938,0.370652,0.327002
16845,0.758772,0.395101,0.099628
16850,-0.297167,-0.494950,-0.318613
16855,-0.770049,-0.462707,-0.037696
16860,0.208530,0.359274,0.189532
16865,0.732715,0.457557,-0.030694
16870,-0.222608,-0.389070,-0.247007
16875,-0.756886,-0.483556,-0.102467
16880,0.274414,0.450325,0.393740
16885,0.721839,0.335283,0.041052
16890,-0.242767,-0.456569,-0.261562
16895,-0.747462,-0.351385,-0.037523
16900,0.221604,0.473311,0.292899
16905,0.735982,0.451044,0.040672
16910,-0.191650,-0.483771,-0.307280
16915,-0.682458,-0.330924,0.004680
16920,0.244006,0.425537,0.303918
16925,0.813769,0.515122,0.015243
16930,-0.135561,-0.522953,-0.232360
16935,-0.682159,-0.440061,0.007346
16940,0.278027,0.433766,0.302692
16945,0.684255,0.339840,0.046869
16950,-0.259895,-0.485284,-0.334935
16955,-0.826165,-0.423761,-0.139683
16960,0.169014,0.451003,0.349184
16965,0.799524,0.452005,-0.069105
16970,-0.253058,-0.423864,-0.197185
16975,-0.756289,-0.373741,-0.004289
16980,0.138546,0.476294,0.264392
16985,0.692320,0.424486,-0.073622
16990,-0.325126,-0.355759,-0.274470
16995,-0.781520,-0.413647,0.038118
17000,0.280758,0.390653,0.252472
17005,0.869898,0.337518,0.043700
17010,-0.263089,-0.365360,-0.352638
17015,-0.752208,-0.503673,-0.004076
17020,0.269804,0.367745,0.206473
17025,0.692548,0.494661,-0.003789
17030,-0.171819,-0.455346,-0.248954
17035,-0.716201,-0.416460,0.054628
17040,0.222172,0.492238,0.284920
17045,0.761562,0.340868,-0.001400
17050,-0.235071,-0.442195,-0.332163
17055,-0.573771,-0.383874,-0.022663
17060,0.193283,0.371524,0.305215
17065,0.701465,0.454815,-0.022833
17070,-0.117724,-0.372603,-0.283711
17075,-0.745736,-0.453080,-0.002518
17080,0.257229,0.370929,0.310182
17085,0.707855,0.440223,0.022554
17090,-0.212811,-0.471467,-0.272922
17095,-0.857166,-0.394805,0.001359
17100,0.170334,0.450086,0.352227
17105,0.814584,0.423521,-0.098017
17110,-0.252790,-0.444114,-0.360285
17115,-0.792187,-0.470988,-0.011658
17120,0.205552,0.392161,0.359437
17125,0.828458,0.496200,-0.009127
17130,-0.239959,-0.446851,-0.297811
17135,-0.717059,-0.490217,0.035607
17140,0.283585,0.509897,0.321730
17145,0.750341,0.356596,-0.089499
17150,-0.211056,-0.493117,-0.351190
17155,-0.754515,-0.406909,-0.041255
17160,0.243706,0.406540,0.348335
17165,0.770790,0.368089,0.054620
17170,-0.279883,-0.362618,-0.374845
17175,-0.714646,-0.394331,0.035928
17180,0.276631,0.323645,0.244602
17185,0.764057,0.395622,0.034013
17190,-0.153508,-0.399143,-0.320119
17195,-0.759648,-0.369367,0.033261
17200,0.161987,0.450522,0.181859
17205,0.757026,0.428590,0.079143
17210,-0.233506,-0.367115,-0.287836
17215,-0.759911,-0.419106,-0.033573
17220,0.199341,0.530309,0.296305
17225,0.701887,0.449404,0.026911
17230,-0.231608,-0.503943,-0.321494
17235,-0.703711,-0.426721,0.019899
17240,0.237112,0.405411,0.316752
17245,0.764551,0.515383,0.081525
17250,-0.191194,-0.376312,-0.304525
17255,-0.792880,-0.453432,0.051906
17260,0.187766,0.392852,0.274551
17265,0.752512,0.421924,-0.074421
17270,-0.291103,-0.365270,-0.278246
17275,-0.774728,-0.418395,0.033313
17280,0.174651,0.424480,0.349514
17285,0.749641,0.415730,0.051714
17290,-0.252332,-0.444136,-0.305254
17295,-0.825068,-0.440576,-0.031012
17300,0.237316,0.412019,0.342073
17305,0.722559,0.412115,-0.094911
17310,-0.227814,-0.361022,-0.210769
17315,-0.810253,-0.393421,-0.059807
17320,0.204286,0.490053,0.368004
17325,0.779079,0.401013,0.022228
17330,-0.213604,-0.465125,-0.291395
17335,-0.849724,-0.489007,-0.000773
17340,0.131229,0.447720,0.266550
17345,0.704539,0.418242,-0.009005
17350,-0.283399,-0.422269,-0.353469
17355,-0.793476,-0.441656,0.009586
17360,0.217555,0.441385,0.260834
17365,0.770030,0.344217,-0.063421
17370,-0.255415,-0.427203,-0.284258
17375,-0.802105,-0.419191,-0.032674
17380,0.230564,0.435933,0.325687
17385,0.767855,0.398868,0.017907
17390,-0.309367,-0.418413,-0.325705
17395,-0.803150,-0.405316,0.057750
17400,0.296043,0.418325,0.305584
17405,0.746720,0.381491,-0.058570
17410,-0.264613,-0.355475,-0.228077
17415,-0.767395,-0.389184,0.054576
17420,0.254479,0.302809,0.316815
17425,0.729078,0.362821,-0.012831
17430,-0.301155,-0.321488,-0.262345
17435,-0.745053,-0.365903,-0.066529
17440,0.292353,0.508943,0.189355
17445,0.700645,0.491490,0.037613
17450,-0.200301,-0.476852,-0.254551
17455,-0.760992,-0.332764,0.048789
17460,0.204053,0.450853,0.335365
17465,0.752398,0.487578,0.012888
17470,-0.254356,-0.464911,-0.271074
17475,-0.758197,-0.411559,-0.036215
17480,0.201313,0.534434,0.240879
17485,0.700560,0.433488,-0.041237
17490,-0.200642,-0.445875,-0.318587
17495,-0.664142,-0.485419,0.043714
17500,0.243642,0.500983,0.379704
17505,0.695442,0.431565,-0.023845
17510,-0.178821,-0.456666,-0.331013
17515,-0.765548,-0.318943,0.025066
17520,0.315899,0.441091,0.254914
17525,0.762537,0.441602,-0.018425
17530,-0.279855,-0.485719,-0.300604
17535,-0.697362,-0.443164,-0.030398
17540,0.178232,0.397332,0.248278
17545,0.795151,0.364109,0.041794
17550,-0.220428,-0.406728,-0.296757
17555,-0.865318,-0.375108,-0.049006
17560,0.205162,0.396955,0.311826
17565,0.834398,0.430648,0.034164
17570,-0.222856,-0.356139,-0.314908
17575,-0.771896,-0.348104,0.006117
17580,0.224215,0.423423,0.345950
17585,0.728790,0.432501,-0.037620
17590,-0.205245,-0.409518,-0.286985
17595,-0.631912,-0.437091,0.075164
17600,0.287233,0.420958,0.314385
17605,0.811847,0.400070,0.013392
17610,-0.225930,-0.428021,-0.273111
17615,-0.813813,-0.495448,0.012058
17620,0.226494,0.464358,0.314337
17625,0.827559,0.417167,-0.017800
17630,-0.272665,-0.425664,-0.302013
17635,-0.774585,-0.416959,0.026907
17640,0.243266,0.524874,0.226443
17645,0.765128,0.287489,-0.046968
17650,-0.289429,-0.360037,-0.266182
17655,-0.767078,-0.385004,-0.023937
17660,0.286657,0.385275,0.367678
17665,0.759882,0.395969,0.010719
17670,-0.209650,-0.469590,-0.353908
17675,-0.741225,-0.377035,0.109339
17680,0.164880,0.444847,0.199717
17685,0.812455,0.470269,0.013895
17690,-0.244934,-0.416533,-0.285230
17695,-0.731292,-0.383748,-0.007042
17700,0.233287,0.312080,0.315502
17705,0.781971,0.441515,-0.002245
